time,acc_x,acc_y,acc_z,gyr_x,gyr_y,gyr_z,posture
2021-11-06 02:06:59.781666,0.0,0.0,0.0,0.0,0.0,0.0,GOOD
2021-11-06 02:07:00.141609,0.0,0.0,0.0,0.0,0.0,0.0,GOOD
2021-11-06 02:07:00.501645,-1.927734375,0.02587890625,0.18701171875,0.7781982421875,0.80108642578125,0.213623046875,GOOD
2021-11-06 02:07:00.861566,-1.927734375,0.02587890625,0.18701171875,0.7781982421875,0.80108642578125,0.213623046875,GOOD
2021-11-06 02:07:01.221538,-1.927734375,0.02587890625,0.18701171875,0.91552734375,0.5645751953125,0.70953369140625,GOOD
2021-11-06 02:07:01.581500,-1.92919921875,0.02587890625,0.19921875,0.91552734375,0.5645751953125,0.70953369140625,GOOD
2021-11-06 02:07:01.941486,-1.92919921875,0.02587890625,0.19921875,0.91552734375,0.5645751953125,0.70953369140625,GOOD
2021-11-06 02:07:02.301452,-1.9267578125,0.02978515625,0.1865234375,1.16729736328125,0.77056884765625,0.61798095703125,GOOD
2021-11-06 02:07:02.661509,-1.9267578125,0.02978515625,0.1865234375,1.16729736328125,0.77056884765625,0.61798095703125,GOOD
2021-11-06 02:07:03.021467,-1.9267578125,0.02978515625,0.1865234375,1.16729736328125,0.77056884765625,0.61798095703125,GOOD
2021-11-06 02:07:03.381435,-1.91943359375,0.03271484375,0.18310546875,1.12152099609375,0.823974609375,0.67138671875,GOOD
2021-11-06 02:07:03.741968,-1.91943359375,0.03271484375,0.18310546875,1.12152099609375,0.823974609375,0.67138671875,GOOD
2021-11-06 02:07:04.101430,-1.91943359375,0.03271484375,0.18310546875,1.12152099609375,0.823974609375,0.67138671875,GOOD
2021-11-06 02:07:04.461466,-1.92822265625,0.03857421875,0.16796875,1.18255615234375,0.86212158203125,-0.0152587890625,GOOD
2021-11-06 02:07:04.866380,-1.92822265625,0.03857421875,0.16796875,1.18255615234375,0.86212158203125,-0.0152587890625,GOOD
2021-11-06 02:07:05.226402,-1.92822265625,0.03857421875,0.16796875,1.739501953125,0.518798828125,0.35858154296875,GOOD
2021-11-06 02:07:05.586430,-1.93994140625,0.033203125,0.17529296875,1.739501953125,0.518798828125,0.35858154296875,GOOD
2021-11-06 02:07:05.946470,-1.93994140625,0.033203125,0.17529296875,1.739501953125,0.518798828125,0.35858154296875,GOOD
2021-11-06 02:07:06.306307,-1.9287109375,0.03662109375,0.1591796875,1.07574462890625,0.98419189453125,0.5950927734375,GOOD
2021-11-06 02:07:06.756261,-1.9287109375,0.03662109375,0.1591796875,1.07574462890625,0.98419189453125,0.5950927734375,GOOD
2021-11-06 02:07:07.116258,-1.9287109375,0.03662109375,0.1591796875,1.07574462890625,0.98419189453125,0.5950927734375,GOOD
2021-11-06 02:07:07.476280,-1.93359375,0.0478515625,0.1591796875,0.7171630859375,1.16729736328125,0.5950927734375,GOOD
2021-11-06 02:07:07.836177,-1.93359375,0.0478515625,0.1591796875,0.7171630859375,1.16729736328125,0.5950927734375,GOOD
2021-11-06 02:07:08.241250,-1.93359375,0.0478515625,0.1591796875,0.42724609375,0.98419189453125,0.5340576171875,GOOD
2021-11-06 02:07:08.601186,-1.9345703125,0.04150390625,0.1630859375,0.42724609375,0.98419189453125,0.5340576171875,GOOD
2021-11-06 02:07:08.961181,-1.9345703125,0.04150390625,0.1630859375,0.42724609375,0.98419189453125,0.5340576171875,GOOD
2021-11-06 02:07:09.366181,-1.9345703125,0.02783203125,0.13525390625,1.60980224609375,0.8087158203125,0.9613037109375,GOOD
2021-11-06 02:07:09.726103,-1.9345703125,0.02783203125,0.13525390625,1.60980224609375,0.8087158203125,0.9613037109375,GOOD
2021-11-06 02:07:10.086112,-1.9345703125,0.02783203125,0.13525390625,1.60980224609375,0.8087158203125,0.9613037109375,GOOD
2021-11-06 02:07:10.446137,-1.931640625,0.04248046875,0.1572265625,1.678466796875,0.48828125,0.3204345703125,GOOD
2021-11-06 02:07:10.806034,-1.931640625,0.04248046875,0.1572265625,1.678466796875,0.48828125,0.3204345703125,GOOD
2021-11-06 02:07:11.166010,-1.931640625,0.04248046875,0.1572265625,1.678466796875,0.48828125,0.3204345703125,GOOD
2021-11-06 02:07:11.526049,-1.9365234375,0.04248046875,0.16943359375,0.8697509765625,1.10626220703125,0.640869140625,GOOD
2021-11-06 02:07:11.931064,-1.9365234375,0.04248046875,0.16943359375,0.8697509765625,1.10626220703125,0.640869140625,GOOD
2021-11-06 02:07:12.335996,-1.9423828125,0.03271484375,0.140625,1.0528564453125,1.04522705078125,0.55694580078125,GOOD
2021-11-06 02:07:12.695980,-1.9423828125,0.03271484375,0.140625,1.0528564453125,1.04522705078125,0.55694580078125,GOOD
2021-11-06 02:07:13.145973,-1.9423828125,0.03271484375,0.140625,1.0528564453125,1.04522705078125,0.55694580078125,GOOD
2021-11-06 02:07:13.505922,-1.93359375,0.03564453125,0.15625,1.02996826171875,0.8392333984375,0.3204345703125,GOOD
2021-11-06 02:07:13.910910,-1.93359375,0.03564453125,0.15625,1.02996826171875,0.8392333984375,0.3204345703125,GOOD
2021-11-06 02:07:14.270872,-1.93359375,0.03564453125,0.15625,1.15203857421875,0.90789794921875,0.72479248046875,GOOD
2021-11-06 02:07:14.630896,-1.93896484375,0.03564453125,0.1494140625,1.15203857421875,0.90789794921875,0.72479248046875,GOOD
2021-11-06 02:07:14.990804,-1.93896484375,0.03564453125,0.1494140625,1.15203857421875,0.90789794921875,0.72479248046875,GOOD
2021-11-06 02:07:15.350833,-1.939453125,0.03515625,0.140625,2.09808349609375,1.1749267578125,0.7781982421875,GOOD
2021-11-06 02:07:15.710741,-1.939453125,0.03515625,0.140625,2.09808349609375,1.1749267578125,0.7781982421875,GOOD
2021-11-06 02:07:16.070723,-1.939453125,0.03515625,0.140625,2.09808349609375,1.1749267578125,0.7781982421875,GOOD
2021-11-06 02:07:16.430808,-1.9345703125,0.0390625,0.1572265625,0.9307861328125,0.67901611328125,0.64849853515625,GOOD
2021-11-06 02:07:16.790737,-1.9345703125,0.0390625,0.1572265625,0.9307861328125,0.67901611328125,0.64849853515625,GOOD
2021-11-06 02:07:17.150752,-1.9345703125,0.0390625,0.1572265625,0.9307861328125,0.67901611328125,0.64849853515625,GOOD
2021-11-06 02:07:17.510711,-1.92822265625,0.04736328125,0.158203125,0.63323974609375,1.06048583984375,0.91552734375,GOOD
2021-11-06 02:07:17.870696,-1.92822265625,0.04736328125,0.158203125,0.63323974609375,1.06048583984375,0.91552734375,GOOD
2021-11-06 02:07:18.230799,-1.92822265625,0.04736328125,0.158203125,1.0528564453125,0.9765625,0.5950927734375,GOOD
2021-11-06 02:07:18.590735,-1.93359375,0.03515625,0.16455078125,1.0528564453125,0.9765625,0.5950927734375,GOOD
2021-11-06 02:07:18.950635,-1.93359375,0.03515625,0.16455078125,1.0528564453125,0.9765625,0.5950927734375,GOOD
2021-11-06 02:07:19.310646,-1.92333984375,0.0244140625,0.13916015625,-1.62506103515625,-1.38092041015625,-0.6103515625,GOOD
2021-11-06 02:07:19.670561,-1.92333984375,0.0244140625,0.13916015625,-1.62506103515625,-1.38092041015625,-0.6103515625,GOOD
2021-11-06 02:07:20.030642,-1.92333984375,0.0244140625,0.13916015625,-1.62506103515625,-1.38092041015625,-0.6103515625,GOOD
2021-11-06 02:07:20.390589,-1.9287109375,0.02099609375,0.11279296875,2.58636474609375,0.67138671875,1.312255859375,GOOD
2021-11-06 02:07:20.750521,-1.9287109375,0.02099609375,0.11279296875,2.58636474609375,0.67138671875,1.312255859375,GOOD
2021-11-06 02:07:21.155503,-1.9287109375,0.02099609375,0.11279296875,2.58636474609375,0.67138671875,1.312255859375,GOOD
2021-11-06 02:07:21.515451,-1.9501953125,0.044921875,0.10400390625,1.71661376953125,-0.64849853515625,0.80108642578125,GOOD
2021-11-06 02:07:21.875443,-1.9501953125,0.044921875,0.10400390625,1.71661376953125,-0.64849853515625,0.80108642578125,GOOD
2021-11-06 02:07:22.235483,-1.9501953125,0.044921875,0.10400390625,-0.091552734375,-0.06866455078125,0.335693359375,GOOD
2021-11-06 02:07:22.595523,-1.93798828125,0.02978515625,0.1494140625,-0.091552734375,-0.06866455078125,0.335693359375,GOOD
2021-11-06 02:07:22.955456,-1.93798828125,0.02978515625,0.1494140625,-0.091552734375,-0.06866455078125,0.335693359375,GOOD
2021-11-06 02:07:23.315403,-1.94091796875,0.03173828125,0.15771484375,0.8544921875,0.25177001953125,0.11444091796875,GOOD
2021-11-06 02:07:23.675464,-1.94091796875,0.03173828125,0.15771484375,0.8544921875,0.25177001953125,0.11444091796875,GOOD
2021-11-06 02:07:24.035312,-1.94091796875,0.03173828125,0.15771484375,0.8544921875,0.25177001953125,0.11444091796875,GOOD
2021-11-06 02:07:24.395451,-1.935546875,0.029296875,0.16015625,0.70953369140625,0.41961669921875,0.7476806640625,GOOD
2021-11-06 02:07:24.755259,-1.935546875,0.029296875,0.16015625,0.70953369140625,0.41961669921875,0.7476806640625,GOOD
2021-11-06 02:07:25.115287,-1.935546875,0.029296875,0.16015625,0.70953369140625,0.41961669921875,0.7476806640625,GOOD
2021-11-06 02:07:25.475275,-1.93701171875,0.033203125,0.1513671875,1.56402587890625,1.89971923828125,0.89263916015625,GOOD
2021-11-06 02:07:25.880258,-1.93701171875,0.033203125,0.1513671875,1.56402587890625,1.89971923828125,0.89263916015625,GOOD
2021-11-06 02:07:26.240245,-1.93701171875,0.033203125,0.1513671875,1.1749267578125,0.98419189453125,0.6866455078125,GOOD
2021-11-06 02:07:26.645314,-1.93359375,0.0400390625,0.14404296875,1.1749267578125,0.98419189453125,0.6866455078125,GOOD
2021-11-06 02:07:27.005209,-1.93359375,0.0400390625,0.14404296875,1.1749267578125,0.98419189453125,0.6866455078125,GOOD
2021-11-06 02:07:27.410263,-1.93359375,0.03515625,0.13330078125,1.4495849609375,0.93841552734375,0.55694580078125,GOOD
2021-11-06 02:07:27.770236,-1.93359375,0.03515625,0.13330078125,1.4495849609375,0.93841552734375,0.55694580078125,GOOD
2021-11-06 02:07:28.130230,-1.93359375,0.03515625,0.13330078125,1.4495849609375,0.93841552734375,0.55694580078125,GOOD
2021-11-06 02:07:28.490159,-1.9326171875,0.04296875,0.1494140625,0.48065185546875,1.5869140625,1.15966796875,GOOD
2021-11-06 02:07:28.850081,-1.9326171875,0.04296875,0.1494140625,0.48065185546875,1.5869140625,1.15966796875,GOOD
2021-11-06 02:07:29.210080,-1.9326171875,0.04296875,0.1494140625,1.7852783203125,0.92315673828125,0.152587890625,GOOD
2021-11-06 02:07:29.615016,-1.9345703125,0.03125,0.1513671875,1.7852783203125,0.92315673828125,0.152587890625,GOOD
2021-11-06 02:07:30.020033,-1.9345703125,0.03125,0.1513671875,1.7852783203125,0.92315673828125,0.152587890625,GOOD
2021-11-06 02:07:30.380112,-1.9375,0.03271484375,0.1455078125,1.251220703125,0.640869140625,0.43487548828125,GOOD
2021-11-06 02:07:30.740048,-1.9375,0.03271484375,0.1455078125,1.251220703125,0.640869140625,0.43487548828125,GOOD
2021-11-06 02:07:31.145063,-1.9375,0.03271484375,0.1455078125,1.251220703125,0.640869140625,0.43487548828125,GOOD
2021-11-06 02:07:31.505014,-1.9375,0.03173828125,0.1474609375,1.33514404296875,0.4730224609375,0.55694580078125,GOOD
2021-11-06 02:07:31.864970,-1.9375,0.03173828125,0.1474609375,1.33514404296875,0.4730224609375,0.55694580078125,GOOD
2021-11-06 02:07:32.269986,-1.9375,0.03173828125,0.1474609375,1.25885009765625,0.81634521484375,0.4425048828125,GOOD
2021-11-06 02:07:32.629941,-1.93212890625,0.03125,0.154296875,1.25885009765625,0.81634521484375,0.4425048828125,GOOD
2021-11-06 02:07:32.989931,-1.93212890625,0.03125,0.154296875,1.25885009765625,0.81634521484375,0.4425048828125,GOOD
2021-11-06 02:07:33.349866,-1.943359375,0.03857421875,0.1533203125,0.213623046875,0.1983642578125,0.2899169921875,GOOD
2021-11-06 02:07:33.709871,-1.943359375,0.03857421875,0.1533203125,0.213623046875,0.1983642578125,0.2899169921875,GOOD
2021-11-06 02:07:34.114849,-1.943359375,0.03857421875,0.1533203125,0.213623046875,0.1983642578125,0.2899169921875,GOOD
2021-11-06 02:07:34.474843,-1.93212890625,0.03564453125,0.1494140625,1.28936767578125,0.2593994140625,0.54168701171875,GOOD
2021-11-06 02:07:34.834801,-1.93212890625,0.03564453125,0.1494140625,1.28936767578125,0.2593994140625,0.54168701171875,GOOD
2021-11-06 02:07:35.240288,-1.93212890625,0.03564453125,0.1494140625,3.0517578125,0.92315673828125,0.38909912109375,GOOD
2021-11-06 02:07:35.599755,-1.93310546875,0.04248046875,0.16162109375,3.0517578125,0.92315673828125,0.38909912109375,GOOD
2021-11-06 02:07:35.959738,-1.93310546875,0.04248046875,0.16162109375,3.0517578125,0.92315673828125,0.38909912109375,GOOD
2021-11-06 02:07:36.364721,-1.93212890625,0.0380859375,0.15576171875,0.77056884765625,0.640869140625,0.5340576171875,GOOD
2021-11-06 02:07:36.724745,-1.93212890625,0.0380859375,0.15576171875,0.77056884765625,0.640869140625,0.5340576171875,GOOD
2021-11-06 02:07:37.084694,-1.93212890625,0.0380859375,0.15576171875,0.77056884765625,0.640869140625,0.5340576171875,GOOD
2021-11-06 02:07:37.444717,-1.92578125,0.04296875,0.15087890625,0.49591064453125,0.72479248046875,0.7476806640625,GOOD
2021-11-06 02:07:37.804663,-1.92578125,0.04296875,0.15087890625,0.49591064453125,0.72479248046875,0.7476806640625,GOOD
2021-11-06 02:07:38.164620,-1.92578125,0.04296875,0.15087890625,0.49591064453125,0.72479248046875,0.7476806640625,GOOD
2021-11-06 02:07:38.524694,-1.93701171875,0.04150390625,0.14892578125,0.70953369140625,0.885009765625,0.6103515625,GOOD
2021-11-06 02:07:38.884600,-1.93701171875,0.04150390625,0.14892578125,0.70953369140625,0.885009765625,0.6103515625,GOOD
2021-11-06 02:07:39.244654,-1.93701171875,0.04150390625,0.14892578125,1.39617919921875,0.0457763671875,0.42724609375,GOOD
2021-11-06 02:07:39.604565,-1.9384765625,0.03271484375,0.166015625,1.39617919921875,0.0457763671875,0.42724609375,GOOD
2021-11-06 02:07:39.964557,-1.9384765625,0.03271484375,0.166015625,1.39617919921875,0.0457763671875,0.42724609375,GOOD
2021-11-06 02:07:40.324607,-1.93798828125,0.0458984375,0.1513671875,0.91552734375,0.72479248046875,0.579833984375,GOOD
2021-11-06 02:07:40.684496,-1.93798828125,0.0458984375,0.1513671875,0.91552734375,0.72479248046875,0.579833984375,GOOD
2021-11-06 02:07:41.089481,-1.93798828125,0.0458984375,0.1513671875,0.91552734375,0.72479248046875,0.579833984375,GOOD
2021-11-06 02:07:41.449442,-1.9326171875,0.03369140625,0.15771484375,0.18310546875,0.38909912109375,0.77056884765625,GOOD
2021-11-06 02:07:41.809446,-1.9326171875,0.03369140625,0.15771484375,0.18310546875,0.38909912109375,0.77056884765625,GOOD
2021-11-06 02:07:42.169461,-1.9326171875,0.03369140625,0.15771484375,0.18310546875,0.38909912109375,0.77056884765625,GOOD
2021-11-06 02:07:42.529559,-1.93798828125,0.044921875,0.169921875,1.2969970703125,0.14495849609375,0.213623046875,GOOD
2021-11-06 02:07:42.889407,-1.93798828125,0.044921875,0.169921875,1.2969970703125,0.14495849609375,0.213623046875,GOOD
2021-11-06 02:07:43.250019,-1.93798828125,0.044921875,0.169921875,0.3204345703125,1.15966796875,0.518798828125,GOOD
2021-11-06 02:07:43.609455,-1.927734375,0.04931640625,0.1640625,0.3204345703125,1.15966796875,0.518798828125,GOOD
2021-11-06 02:07:43.969376,-1.927734375,0.04931640625,0.1640625,0.3204345703125,1.15966796875,0.518798828125,GOOD
2021-11-06 02:07:44.329405,-1.93115234375,0.02783203125,0.14892578125,0.60272216796875,0.48828125,0.61798095703125,GOOD
2021-11-06 02:07:44.689375,-1.93115234375,0.02783203125,0.14892578125,0.60272216796875,0.48828125,0.61798095703125,GOOD
2021-11-06 02:07:45.049309,-1.93115234375,0.02783203125,0.14892578125,0.60272216796875,0.48828125,0.61798095703125,GOOD
2021-11-06 02:07:45.409279,-1.93603515625,0.0400390625,0.1611328125,0.5950927734375,0.95367431640625,0.67901611328125,GOOD
2021-11-06 02:07:45.769265,-1.93603515625,0.0400390625,0.1611328125,0.5950927734375,0.95367431640625,0.67901611328125,GOOD
2021-11-06 02:07:46.174271,-1.93603515625,0.0400390625,0.1611328125,0.5950927734375,0.95367431640625,0.67901611328125,GOOD
2021-11-06 02:07:46.534196,-1.93359375,0.04248046875,0.169921875,0.86212158203125,0.67901611328125,0.83160400390625,GOOD
2021-11-06 02:07:46.894170,-1.93359375,0.04248046875,0.169921875,0.86212158203125,0.67901611328125,0.83160400390625,GOOD
2021-11-06 02:07:47.299184,-1.94775390625,0.0419921875,0.1552734375,1.48773193359375,1.59454345703125,1.47247314453125,GOOD
2021-11-06 02:07:47.659252,-1.94775390625,0.0419921875,0.1552734375,1.48773193359375,1.59454345703125,1.47247314453125,GOOD
2021-11-06 02:07:48.019207,-1.94775390625,0.0419921875,0.1552734375,1.48773193359375,1.59454345703125,1.47247314453125,GOOD
2021-11-06 02:07:48.379211,-1.9423828125,0.05517578125,0.16064453125,-0.11444091796875,0.8544921875,0.38909912109375,GOOD
2021-11-06 02:07:48.739094,-1.9423828125,0.05517578125,0.16064453125,-0.11444091796875,0.8544921875,0.38909912109375,GOOD
2021-11-06 02:07:49.099162,-1.9423828125,0.05517578125,0.16064453125,-0.11444091796875,0.8544921875,0.38909912109375,GOOD
2021-11-06 02:07:49.504011,-1.9384765625,0.05712890625,0.14892578125,0.86212158203125,0.4119873046875,0.29754638671875,GOOD
2021-11-06 02:07:49.864201,-1.9384765625,0.05712890625,0.14892578125,0.86212158203125,0.4119873046875,0.29754638671875,GOOD
2021-11-06 02:07:50.314082,-1.935546875,0.05322265625,0.1572265625,1.1138916015625,0.4730224609375,0.6866455078125,GOOD
2021-11-06 02:07:50.674073,-1.935546875,0.05322265625,0.1572265625,1.1138916015625,0.4730224609375,0.6866455078125,GOOD
2021-11-06 02:07:51.033997,-1.935546875,0.05322265625,0.1572265625,1.1138916015625,0.4730224609375,0.6866455078125,GOOD
2021-11-06 02:07:51.394058,-1.9365234375,0.03857421875,0.16650390625,2.349853515625,1.03759765625,0.60272216796875,GOOD
2021-11-06 02:07:51.754020,-1.9365234375,0.03857421875,0.16650390625,2.349853515625,1.03759765625,0.60272216796875,GOOD
2021-11-06 02:07:52.114034,-1.9365234375,0.03857421875,0.16650390625,2.349853515625,1.03759765625,0.60272216796875,GOOD
2021-11-06 02:07:52.473987,-1.94287109375,0.05029296875,0.1455078125,1.312255859375,0.6866455078125,0.67901611328125,GOOD
2021-11-06 02:07:52.878958,-1.94287109375,0.05029296875,0.1455078125,1.312255859375,0.6866455078125,0.67901611328125,GOOD
2021-11-06 02:07:53.238884,-1.94287109375,0.05029296875,0.1455078125,1.64794921875,1.07574462890625,0.66375732421875,GOOD
2021-11-06 02:07:53.643901,-1.93359375,0.04296875,0.15185546875,1.64794921875,1.07574462890625,0.66375732421875,GOOD
2021-11-06 02:07:54.003822,-1.93359375,0.04296875,0.15185546875,1.64794921875,1.07574462890625,0.66375732421875,GOOD
2021-11-06 02:07:54.453880,-1.93408203125,0.03271484375,0.15625,1.1138916015625,0.823974609375,0.732421875,GOOD
2021-11-06 02:07:54.813953,-1.93408203125,0.03271484375,0.15625,1.1138916015625,0.823974609375,0.732421875,GOOD
2021-11-06 02:07:55.173827,-1.93408203125,0.03271484375,0.15625,1.1138916015625,0.823974609375,0.732421875,GOOD
2021-11-06 02:07:55.533818,-1.935546875,0.0546875,0.1611328125,1.09100341796875,0.67138671875,0.69427490234375,GOOD
2021-11-06 02:07:55.893866,-1.935546875,0.0546875,0.1611328125,1.09100341796875,0.67138671875,0.69427490234375,GOOD
2021-11-06 02:07:56.253739,-1.935546875,0.0546875,0.1611328125,1.47247314453125,0.5645751953125,0.19073486328125,GOOD
2021-11-06 02:07:56.613912,-1.9345703125,0.05029296875,0.1513671875,1.47247314453125,0.5645751953125,0.19073486328125,GOOD
2021-11-06 02:07:56.973741,-1.9345703125,0.05029296875,0.1513671875,1.47247314453125,0.5645751953125,0.19073486328125,GOOD
2021-11-06 02:07:57.333653,-1.9375,0.03173828125,0.16748046875,0.213623046875,0.41961669921875,0.55694580078125,GOOD
2021-11-06 02:07:57.693696,-1.9375,0.03173828125,0.16748046875,0.213623046875,0.41961669921875,0.55694580078125,GOOD
2021-11-06 02:07:58.053582,-1.9375,0.03173828125,0.16748046875,0.213623046875,0.41961669921875,0.55694580078125,GOOD
2021-11-06 02:07:58.413641,-1.931640625,0.04248046875,0.18505859375,1.68609619140625,0.25177001953125,0.93841552734375,GOOD
2021-11-06 02:07:58.818598,-1.931640625,0.04248046875,0.18505859375,1.68609619140625,0.25177001953125,0.93841552734375,GOOD
2021-11-06 02:07:59.223597,-1.931640625,0.04248046875,0.18505859375,1.28173828125,0.640869140625,0.18310546875,GOOD
2021-11-06 02:07:59.583608,-1.92822265625,0.0478515625,0.16845703125,1.28173828125,0.640869140625,0.18310546875,GOOD
2021-11-06 02:07:59.943626,-1.92822265625,0.0478515625,0.16845703125,1.28173828125,0.640869140625,0.18310546875,GOOD
2021-11-06 02:08:00.303575,-1.93359375,0.04248046875,0.17724609375,0.7781982421875,0.6103515625,0.579833984375,GOOD
2021-11-06 02:08:00.663590,-1.93359375,0.04248046875,0.17724609375,0.7781982421875,0.6103515625,0.579833984375,GOOD
2021-11-06 02:08:01.023552,-1.93359375,0.04248046875,0.17724609375,0.7781982421875,0.6103515625,0.579833984375,GOOD
2021-11-06 02:08:01.383498,-1.93798828125,0.04931640625,0.1767578125,0.8087158203125,0.64849853515625,0.25177001953125,GOOD
2021-11-06 02:08:01.743574,-1.93798828125,0.04931640625,0.1767578125,0.8087158203125,0.64849853515625,0.25177001953125,GOOD
2021-11-06 02:08:02.103471,-1.93798828125,0.04931640625,0.1767578125,0.8087158203125,0.64849853515625,0.25177001953125,GOOD
2021-11-06 02:08:02.463588,-1.93603515625,0.046875,0.181640625,1.251220703125,0.83160400390625,0.8087158203125,GOOD
2021-11-06 02:08:02.823506,-1.93603515625,0.046875,0.181640625,1.251220703125,0.83160400390625,0.8087158203125,GOOD
2021-11-06 02:08:03.228374,-1.93603515625,0.046875,0.181640625,-1.12152099609375,6.4239501953125,-0.05340576171875,GOOD
2021-11-06 02:08:03.633404,-1.9345703125,0.03173828125,0.16162109375,-1.12152099609375,6.4239501953125,-0.05340576171875,GOOD
2021-11-06 02:08:03.993408,-1.9345703125,0.03173828125,0.16162109375,-1.12152099609375,6.4239501953125,-0.05340576171875,GOOD
2021-11-06 02:08:04.353334,-1.93701171875,0.021484375,0.11865234375,1.42669677734375,-0.26702880859375,-0.09918212890625,GOOD
2021-11-06 02:08:04.713380,-1.93701171875,0.021484375,0.11865234375,1.42669677734375,-0.26702880859375,-0.09918212890625,GOOD
2021-11-06 02:08:05.073333,-1.93701171875,0.021484375,0.11865234375,1.42669677734375,-0.26702880859375,-0.09918212890625,GOOD
2021-11-06 02:08:05.433250,-1.95263671875,0.015625,0.13916015625,1.27410888671875,2.3193359375,-0.19073486328125,GOOD
2021-11-06 02:08:05.793330,-1.95263671875,0.015625,0.13916015625,1.27410888671875,2.3193359375,-0.19073486328125,GOOD
2021-11-06 02:08:06.153269,-1.95263671875,0.015625,0.13916015625,1.27410888671875,2.3193359375,-0.19073486328125,GOOD
2021-11-06 02:08:06.513452,-1.95556640625,-0.04833984375,0.09228515625,-8.2855224609375,0.61798095703125,-3.4332275390625,GOOD
2021-11-06 02:08:06.873367,-1.95556640625,-0.04833984375,0.09228515625,-8.2855224609375,0.61798095703125,-3.4332275390625,GOOD
2021-11-06 02:08:07.233325,-1.95556640625,-0.04833984375,0.09228515625,-1.39617919921875,-2.11334228515625,-0.18310546875,GOOD
2021-11-06 02:08:07.593292,-1.9140625,-0.20263671875,0.21728515625,-1.39617919921875,-2.11334228515625,-0.18310546875,BAD
2021-11-06 02:08:07.953261,-1.9140625,-0.20263671875,0.21728515625,-1.39617919921875,-2.11334228515625,-0.18310546875,BAD
2021-11-06 02:08:08.313303,-1.9130859375,-0.208984375,0.28125,0.31280517578125,0.12969970703125,-0.213623046875,BAD
2021-11-06 02:08:08.718255,-1.9130859375,-0.208984375,0.28125,0.31280517578125,0.12969970703125,-0.213623046875,BAD
2021-11-06 02:08:09.078289,-1.9130859375,-0.208984375,0.28125,0.31280517578125,0.12969970703125,-0.213623046875,BAD
2021-11-06 02:08:09.438189,-1.88037109375,-0.22802734375,0.42529296875,3.1890869140625,0.38909912109375,1.22833251953125,BAD
2021-11-06 02:08:09.798254,-1.88037109375,-0.22802734375,0.42529296875,3.1890869140625,0.38909912109375,1.22833251953125,BAD
2021-11-06 02:08:10.158158,-1.88037109375,-0.22802734375,0.42529296875,3.1890869140625,0.38909912109375,1.22833251953125,BAD
2021-11-06 02:08:10.518183,-1.87451171875,-0.20947265625,0.439453125,0.31280517578125,-0.16021728515625,0.77056884765625,BAD
2021-11-06 02:08:10.878647,-1.87451171875,-0.20947265625,0.439453125,0.31280517578125,-0.16021728515625,0.77056884765625,BAD
2021-11-06 02:08:11.238150,-1.87451171875,-0.20947265625,0.439453125,-0.457763671875,-0.9765625,0.16021728515625,BAD
2021-11-06 02:08:11.688049,-1.853515625,-0.21435546875,0.50244140625,-0.457763671875,-0.9765625,0.16021728515625,BAD
2021-11-06 02:08:12.048061,-1.853515625,-0.21435546875,0.50244140625,-0.457763671875,-0.9765625,0.16021728515625,BAD
2021-11-06 02:08:12.408038,-1.8623046875,-0.2275390625,0.46533203125,1.800537109375,0.42724609375,1.56402587890625,BAD
2021-11-06 02:08:12.767965,-1.8623046875,-0.2275390625,0.46533203125,1.800537109375,0.42724609375,1.56402587890625,BAD
2021-11-06 02:08:13.127984,-1.8623046875,-0.2275390625,0.46533203125,1.800537109375,0.42724609375,1.56402587890625,BAD
2021-11-06 02:08:13.488443,-1.869140625,-0.2265625,0.44921875,1.07574462890625,0.8544921875,0.6256103515625,BAD
2021-11-06 02:08:13.847957,-1.869140625,-0.2265625,0.44921875,1.07574462890625,0.8544921875,0.6256103515625,BAD
2021-11-06 02:08:14.207876,-1.869140625,-0.2265625,0.44921875,1.13677978515625,0.86212158203125,0.701904296875,BAD
2021-11-06 02:08:14.567953,-1.87158203125,-0.22607421875,0.46044921875,1.13677978515625,0.86212158203125,0.701904296875,BAD
2021-11-06 02:08:14.972964,-1.87158203125,-0.22607421875,0.46044921875,1.13677978515625,0.86212158203125,0.701904296875,BAD
2021-11-06 02:08:15.332912,-1.87646484375,-0.22607421875,0.4384765625,0.19073486328125,1.59454345703125,-0.030517578125,BAD
2021-11-06 02:08:15.737929,-1.87646484375,-0.22607421875,0.4384765625,0.19073486328125,1.59454345703125,-0.030517578125,BAD
2021-11-06 02:08:16.097862,-1.87646484375,-0.22607421875,0.4384765625,0.19073486328125,1.59454345703125,-0.030517578125,BAD
2021-11-06 02:08:16.457810,-1.8779296875,-0.22314453125,0.43359375,1.190185546875,0.83160400390625,0.54168701171875,BAD
2021-11-06 02:08:16.817858,-1.8779296875,-0.22314453125,0.43359375,1.190185546875,0.83160400390625,0.54168701171875,BAD
2021-11-06 02:08:17.177820,-1.8779296875,-0.22314453125,0.43359375,1.190185546875,0.83160400390625,0.54168701171875,BAD
2021-11-06 02:08:17.582786,-1.8759765625,-0.21875,0.4599609375,1.129150390625,0.52642822265625,0.396728515625,BAD
2021-11-06 02:08:17.942780,-1.8759765625,-0.21875,0.4599609375,1.129150390625,0.52642822265625,0.396728515625,BAD
2021-11-06 02:08:18.347749,-1.8759765625,-0.22802734375,0.44189453125,1.24359130859375,0.60272216796875,0.5950927734375,BAD
2021-11-06 02:08:18.707747,-1.8759765625,-0.22802734375,0.44189453125,1.24359130859375,0.60272216796875,0.5950927734375,BAD
2021-11-06 02:08:19.068181,-1.8759765625,-0.22802734375,0.44189453125,1.24359130859375,0.60272216796875,0.5950927734375,BAD
2021-11-06 02:08:19.428135,-1.8701171875,-0.22998046875,0.462890625,1.60980224609375,0.09918212890625,0.3814697265625,BAD
2021-11-06 02:08:19.787703,-1.8701171875,-0.22998046875,0.462890625,1.60980224609375,0.09918212890625,0.3814697265625,BAD
2021-11-06 02:08:20.147763,-1.8701171875,-0.22998046875,0.462890625,1.60980224609375,0.09918212890625,0.3814697265625,BAD
2021-11-06 02:08:20.507680,-1.86474609375,-0.23486328125,0.44677734375,0.69427490234375,0.25177001953125,0.823974609375,BAD
2021-11-06 02:08:20.912730,-1.86474609375,-0.23486328125,0.44677734375,0.69427490234375,0.25177001953125,0.823974609375,BAD
2021-11-06 02:08:21.362728,-1.88134765625,-0.21484375,0.4599609375,1.15966796875,0.9002685546875,0.30517578125,BAD
2021-11-06 02:08:21.767636,-1.88134765625,-0.21484375,0.4599609375,1.15966796875,0.9002685546875,0.30517578125,BAD
2021-11-06 02:08:22.127616,-1.88134765625,-0.21484375,0.4599609375,1.15966796875,0.9002685546875,0.30517578125,BAD
2021-11-06 02:08:22.487520,-1.8681640625,-0.23291015625,0.451171875,1.1749267578125,0.8544921875,0.29754638671875,BAD
2021-11-06 02:08:22.892539,-1.8681640625,-0.23291015625,0.451171875,1.1749267578125,0.8544921875,0.29754638671875,BAD
2021-11-06 02:08:23.297532,-1.8671875,-0.236328125,0.46435546875,1.1749267578125,1.33514404296875,0.55694580078125,BAD
2021-11-06 02:08:23.657503,-1.8671875,-0.236328125,0.46435546875,1.1749267578125,1.33514404296875,0.55694580078125,BAD
2021-11-06 02:08:24.062449,-1.8671875,-0.236328125,0.46435546875,1.1749267578125,1.33514404296875,0.55694580078125,BAD
2021-11-06 02:08:24.422417,-1.86865234375,-0.2314453125,0.47021484375,0.70953369140625,0.274658203125,0.244140625,BAD
2021-11-06 02:08:24.782397,-1.86865234375,-0.2314453125,0.47021484375,0.70953369140625,0.274658203125,0.244140625,BAD
2021-11-06 02:08:25.142373,-1.86865234375,-0.2314453125,0.47021484375,0.70953369140625,0.274658203125,0.244140625,BAD
2021-11-06 02:08:25.547487,-1.8623046875,-0.23046875,0.462890625,0.8087158203125,0.70953369140625,0.64849853515625,BAD
2021-11-06 02:08:25.907446,-1.8623046875,-0.23046875,0.462890625,0.8087158203125,0.70953369140625,0.64849853515625,BAD
2021-11-06 02:08:26.267428,-1.8623046875,-0.23046875,0.462890625,1.39617919921875,0.63323974609375,0.80108642578125,BAD
2021-11-06 02:08:26.672395,-1.8681640625,-0.2412109375,0.4697265625,1.39617919921875,0.63323974609375,0.80108642578125,BAD
2021-11-06 02:08:27.077366,-1.8681640625,-0.2412109375,0.4697265625,1.39617919921875,0.63323974609375,0.80108642578125,BAD
2021-11-06 02:08:27.482321,-1.86767578125,-0.22607421875,0.47314453125,0.66375732421875,0.64849853515625,0.55694580078125,BAD
2021-11-06 02:08:27.842296,-1.86767578125,-0.22607421875,0.47314453125,0.66375732421875,0.64849853515625,0.55694580078125,BAD
2021-11-06 02:08:28.247317,-1.86767578125,-0.22607421875,0.47314453125,1.4190673828125,0.90789794921875,0.6561279296875,BAD
2021-11-06 02:08:28.652262,-1.8671875,-0.232421875,0.46630859375,1.4190673828125,0.90789794921875,0.6561279296875,BAD
2021-11-06 02:08:29.057302,-1.8671875,-0.232421875,0.46630859375,1.4190673828125,0.90789794921875,0.6561279296875,BAD
2021-11-06 02:08:29.417261,-1.8623046875,-0.23388671875,0.4814453125,0.8087158203125,0.42724609375,0.77056884765625,BAD
2021-11-06 02:08:29.822279,-1.8623046875,-0.23388671875,0.4814453125,0.8087158203125,0.42724609375,0.77056884765625,BAD
2021-11-06 02:08:30.317177,-1.8623046875,-0.23388671875,0.4814453125,1.52587890625,0.61798095703125,0.48065185546875,BAD
2021-11-06 02:08:30.677268,-1.86767578125,-0.2314453125,0.47314453125,1.52587890625,0.61798095703125,0.48065185546875,BAD
2021-11-06 02:08:31.037173,-1.86767578125,-0.2314453125,0.47314453125,1.52587890625,0.61798095703125,0.48065185546875,BAD
2021-11-06 02:08:31.397111,-1.85400390625,-0.22265625,0.4794921875,0.67138671875,0.2288818359375,0.762939453125,BAD
2021-11-06 02:08:31.802111,-1.85400390625,-0.22265625,0.4794921875,0.67138671875,0.2288818359375,0.762939453125,BAD
2021-11-06 02:08:32.162155,-1.85400390625,-0.22265625,0.4794921875,0.67138671875,0.2288818359375,0.762939453125,BAD
2021-11-06 02:08:32.522079,-1.865234375,-0.22119140625,0.49072265625,2.7313232421875,1.068115234375,0.8544921875,BAD
2021-11-06 02:08:33.017038,-1.865234375,-0.22119140625,0.49072265625,2.7313232421875,1.068115234375,0.8544921875,BAD
2021-11-06 02:08:33.421964,-1.8603515625,-0.20263671875,0.5029296875,0.67901611328125,0.1068115234375,0.40435791015625,BAD
2021-11-06 02:08:33.782059,-1.8603515625,-0.20263671875,0.5029296875,0.67901611328125,0.1068115234375,0.40435791015625,BAD
2021-11-06 02:08:34.142036,-1.8603515625,-0.20263671875,0.5029296875,0.67901611328125,0.1068115234375,0.40435791015625,BAD
2021-11-06 02:08:34.546982,-1.86376953125,-0.2197265625,0.51220703125,1.06048583984375,0.91552734375,0.48828125,BAD
2021-11-06 02:08:34.906946,-1.86376953125,-0.2197265625,0.51220703125,1.06048583984375,0.91552734375,0.48828125,BAD
2021-11-06 02:08:35.312008,-1.86376953125,-0.2197265625,0.51220703125,0.61798095703125,0.54168701171875,0.518798828125,BAD
2021-11-06 02:08:35.671952,-1.85986328125,-0.21923828125,0.48779296875,0.61798095703125,0.54168701171875,0.518798828125,BAD
2021-11-06 02:08:36.031908,-1.85986328125,-0.21923828125,0.48779296875,0.61798095703125,0.54168701171875,0.518798828125,BAD
2021-11-06 02:08:36.391958,-1.85791015625,-0.20556640625,0.5009765625,1.1749267578125,0.8392333984375,0.54931640625,BAD
2021-11-06 02:08:36.751927,-1.85791015625,-0.20556640625,0.5009765625,1.1749267578125,0.8392333984375,0.54931640625,BAD
2021-11-06 02:08:37.111915,-1.85791015625,-0.20556640625,0.5009765625,1.1749267578125,0.8392333984375,0.54931640625,BAD
2021-11-06 02:08:37.471901,-1.85498046875,-0.216796875,0.48974609375,1.41143798828125,0.8544921875,0.4425048828125,BAD
2021-11-06 02:08:37.831863,-1.85498046875,-0.216796875,0.48974609375,1.41143798828125,0.8544921875,0.4425048828125,BAD
2021-11-06 02:08:38.191842,-1.85498046875,-0.216796875,0.48974609375,0.16021728515625,0.72479248046875,0.48828125,BAD
2021-11-06 02:08:38.551836,-1.85888671875,-0.208984375,0.4921875,0.16021728515625,0.72479248046875,0.48828125,BAD
2021-11-06 02:08:38.956905,-1.85888671875,-0.208984375,0.4921875,0.16021728515625,0.72479248046875,0.48828125,BAD
2021-11-06 02:08:39.406806,-1.8583984375,-0.220703125,0.50830078125,1.1138916015625,0.78582763671875,0.885009765625,BAD
2021-11-06 02:08:39.767331,-1.8583984375,-0.220703125,0.50830078125,1.1138916015625,0.78582763671875,0.885009765625,BAD
2021-11-06 02:08:40.126806,-1.8583984375,-0.220703125,0.50830078125,1.1138916015625,0.78582763671875,0.885009765625,BAD
2021-11-06 02:08:40.486752,-1.8544921875,-0.2080078125,0.54150390625,2.29644775390625,-0.49591064453125,0.8087158203125,BAD
2021-11-06 02:08:40.892276,-1.8544921875,-0.2080078125,0.54150390625,2.29644775390625,-0.49591064453125,0.8087158203125,BAD
2021-11-06 02:08:41.251695,-1.8544921875,-0.2080078125,0.54150390625,2.43377685546875,0.18310546875,0.1068115234375,BAD
2021-11-06 02:08:41.656672,-1.853515625,-0.19873046875,0.52880859375,2.43377685546875,0.18310546875,0.1068115234375,BAD
2021-11-06 02:08:42.061664,-1.853515625,-0.19873046875,0.52880859375,2.43377685546875,0.18310546875,0.1068115234375,BAD
2021-11-06 02:08:42.511706,-1.853515625,-0.20361328125,0.564453125,0.03814697265625,2.3345947265625,0.3814697265625,BAD
2021-11-06 02:08:42.871671,-1.853515625,-0.20361328125,0.564453125,0.03814697265625,2.3345947265625,0.3814697265625,BAD
2021-11-06 02:08:43.231697,-1.853515625,-0.20361328125,0.564453125,2.593994140625,8.4075927734375,6.35528564453125,BAD
2021-11-06 02:08:43.591646,-1.92919921875,-0.17138671875,0.3056640625,2.593994140625,8.4075927734375,6.35528564453125,BAD
2021-11-06 02:08:43.996635,-1.92919921875,-0.17138671875,0.3056640625,2.593994140625,8.4075927734375,6.35528564453125,BAD
2021-11-06 02:08:44.446625,-1.9443359375,0.04736328125,0.064453125,7.476806640625,5.218505859375,2.5787353515625,BAD
2021-11-06 02:08:44.807160,-1.9443359375,0.04736328125,0.064453125,7.476806640625,5.218505859375,2.5787353515625,BAD
2021-11-06 02:08:45.166559,-1.9443359375,0.04736328125,0.064453125,7.476806640625,5.218505859375,2.5787353515625,BAD
2021-11-06 02:08:45.526544,-1.9462890625,0.05224609375,-0.0322265625,1.36566162109375,-1.77001953125,-0.2593994140625,BAD
2021-11-06 02:08:46.021498,-1.9462890625,0.05224609375,-0.0322265625,1.36566162109375,-1.77001953125,-0.2593994140625,GOOD
2021-11-06 02:08:46.471447,-1.95458984375,0.05810546875,0.02978515625,0.34332275390625,1.861572265625,0.03814697265625,GOOD
2021-11-06 02:08:46.831430,-1.95458984375,0.05810546875,0.02978515625,0.34332275390625,1.861572265625,0.03814697265625,GOOD
2021-11-06 02:08:47.191431,-1.95458984375,0.05810546875,0.02978515625,-2.17437744140625,-4.0740966796875,0.9765625,GOOD
2021-11-06 02:08:47.596458,-1.947265625,0.08154296875,0.0654296875,-2.17437744140625,-4.0740966796875,0.9765625,GOOD
2021-11-06 02:08:48.046507,-1.947265625,0.08154296875,0.0654296875,-2.17437744140625,-4.0740966796875,0.9765625,GOOD
2021-11-06 02:08:48.406448,-1.94482421875,0.0615234375,0.0849609375,0.23651123046875,-1.57928466796875,0.1983642578125,GOOD
2021-11-06 02:08:48.766342,-1.94482421875,0.0615234375,0.0849609375,0.23651123046875,-1.57928466796875,0.1983642578125,GOOD
2021-11-06 02:08:49.126385,-1.94482421875,0.0615234375,0.0849609375,0.23651123046875,-1.57928466796875,0.1983642578125,GOOD
2021-11-06 02:08:49.531490,-1.94140625,0.07958984375,0.146484375,1.2359619140625,-0.80108642578125,0.3204345703125,GOOD
2021-11-06 02:08:49.891327,-1.94140625,0.07958984375,0.146484375,1.2359619140625,-0.80108642578125,0.3204345703125,GOOD
2021-11-06 02:08:50.251339,-1.94140625,0.07958984375,0.146484375,1.50299072265625,1.09100341796875,0.823974609375,GOOD
2021-11-06 02:08:50.611347,-1.92822265625,0.052734375,0.15771484375,1.50299072265625,1.09100341796875,0.823974609375,GOOD
2021-11-06 02:08:50.971266,-1.92822265625,0.052734375,0.15771484375,1.50299072265625,1.09100341796875,0.823974609375,GOOD
2021-11-06 02:08:51.331271,-1.9501953125,0.0859375,0.15185546875,-0.1983642578125,0.5645751953125,0.52642822265625,GOOD
2021-11-06 02:08:51.691272,-1.9501953125,0.0859375,0.15185546875,-0.1983642578125,0.5645751953125,0.52642822265625,GOOD
2021-11-06 02:08:52.051261,-1.9501953125,0.0859375,0.15185546875,-0.1983642578125,0.5645751953125,0.52642822265625,GOOD
2021-11-06 02:08:52.411251,-1.93603515625,0.0703125,0.12841796875,1.31988525390625,1.9073486328125,0.335693359375,GOOD
2021-11-06 02:08:52.771274,-1.93603515625,0.0703125,0.12841796875,1.31988525390625,1.9073486328125,0.335693359375,GOOD
2021-11-06 02:08:53.131191,-1.93603515625,0.0703125,0.12841796875,1.31988525390625,1.9073486328125,0.335693359375,GOOD
2021-11-06 02:08:53.491173,-1.93310546875,0.0673828125,0.126953125,0.732421875,1.09100341796875,-0.1678466796875,GOOD
2021-11-06 02:08:53.896170,-1.93310546875,0.0673828125,0.126953125,0.732421875,1.09100341796875,-0.1678466796875,GOOD
2021-11-06 02:08:54.256123,-1.93310546875,0.0673828125,0.126953125,2.12860107421875,0.84686279296875,0.7476806640625,GOOD
2021-11-06 02:08:54.616127,-1.9296875,0.06591796875,0.11962890625,2.12860107421875,0.84686279296875,0.7476806640625,GOOD
2021-11-06 02:08:55.021119,-1.9296875,0.06591796875,0.11962890625,2.12860107421875,0.84686279296875,0.7476806640625,GOOD
2021-11-06 02:08:55.381180,-1.9306640625,0.06201171875,0.13671875,1.739501953125,-0.1373291015625,0.90789794921875,GOOD
2021-11-06 02:08:55.786102,-1.9306640625,0.06201171875,0.13671875,1.739501953125,-0.1373291015625,0.90789794921875,GOOD
2021-11-06 02:08:56.146121,-1.9306640625,0.06201171875,0.13671875,1.739501953125,-0.1373291015625,0.90789794921875,GOOD
2021-11-06 02:08:56.506017,-1.9365234375,0.06005859375,0.125,0.823974609375,0.5340576171875,0.20599365234375,GOOD
2021-11-06 02:08:56.866009,-1.9365234375,0.06005859375,0.125,0.823974609375,0.5340576171875,0.20599365234375,GOOD
2021-11-06 02:08:57.271021,-1.9365234375,0.06005859375,0.125,3.8604736328125,2.38037109375,1.2664794921875,GOOD
2021-11-06 02:08:57.676067,-1.9443359375,0.0595703125,0.14306640625,3.8604736328125,2.38037109375,1.2664794921875,GOOD
2021-11-06 02:08:58.036013,-1.9443359375,0.0595703125,0.14306640625,3.8604736328125,2.38037109375,1.2664794921875,GOOD
2021-11-06 02:08:58.396030,-1.93115234375,0.0634765625,0.1328125,-0.0152587890625,0.579833984375,1.03759765625,GOOD
2021-11-06 02:08:58.801117,-1.93115234375,0.0634765625,0.1328125,-0.0152587890625,0.579833984375,1.03759765625,GOOD
2021-11-06 02:08:59.205953,-1.93115234375,0.0634765625,0.1328125,0.60272216796875,0.2593994140625,0.61798095703125,GOOD
2021-11-06 02:08:59.565996,-1.93212890625,0.076171875,0.1279296875,0.60272216796875,0.2593994140625,0.61798095703125,GOOD
2021-11-06 02:08:59.925996,-1.93212890625,0.076171875,0.1279296875,0.60272216796875,0.2593994140625,0.61798095703125,GOOD
2021-11-06 02:09:00.285929,-1.9365234375,0.06689453125,0.119140625,1.9073486328125,1.56402587890625,0.66375732421875,GOOD
2021-11-06 02:09:00.690898,-1.9365234375,0.06689453125,0.119140625,1.9073486328125,1.56402587890625,0.66375732421875,GOOD
2021-11-06 02:09:01.095986,-1.9365234375,0.06689453125,0.119140625,1.9073486328125,1.56402587890625,0.66375732421875,GOOD
2021-11-06 02:09:01.455837,-1.93408203125,0.0712890625,0.10107421875,-0.64849853515625,0.7476806640625,0.244140625,GOOD
2021-11-06 02:09:01.815786,-1.93408203125,0.0712890625,0.10107421875,-0.64849853515625,0.7476806640625,0.244140625,GOOD
2021-11-06 02:09:02.175818,-1.93408203125,0.0712890625,0.10107421875,-0.64849853515625,0.7476806640625,0.244140625,GOOD
2021-11-06 02:09:02.535800,-1.93359375,0.06982421875,0.09912109375,1.22833251953125,0.26702880859375,1.35040283203125,GOOD
2021-11-06 02:09:02.895766,-1.93359375,0.06982421875,0.09912109375,1.22833251953125,0.26702880859375,1.35040283203125,GOOD
2021-11-06 02:09:03.300803,-1.93359375,0.06982421875,0.09912109375,1.2054443359375,4.8675537109375,0.02288818359375,GOOD
2021-11-06 02:09:03.660783,-1.9326171875,0.08056640625,0.12060546875,1.2054443359375,4.8675537109375,0.02288818359375,GOOD
2021-11-06 02:09:04.020737,-1.9326171875,0.08056640625,0.12060546875,1.2054443359375,4.8675537109375,0.02288818359375,GOOD
2021-11-06 02:09:04.380788,-1.9345703125,0.05908203125,0.1181640625,1.96075439453125,3.2196044921875,0.335693359375,GOOD
2021-11-06 02:09:04.740778,-1.9345703125,0.05908203125,0.1181640625,1.96075439453125,3.2196044921875,0.335693359375,GOOD
2021-11-06 02:09:05.100696,-1.9345703125,0.05908203125,0.1181640625,1.96075439453125,3.2196044921875,0.335693359375,GOOD
2021-11-06 02:09:05.460767,-1.93896484375,0.0537109375,0.12060546875,1.22833251953125,0.60272216796875,0.64849853515625,GOOD
2021-11-06 02:09:05.820665,-1.93896484375,0.0537109375,0.12060546875,1.22833251953125,0.60272216796875,0.64849853515625,GOOD
2021-11-06 02:09:06.225694,-1.93896484375,0.0537109375,0.12060546875,-1.24359130859375,-0.11444091796875,1.6021728515625,GOOD
2021-11-06 02:09:06.585716,-1.93603515625,0.0537109375,0.08642578125,-1.24359130859375,-0.11444091796875,1.6021728515625,GOOD
2021-11-06 02:09:06.945716,-1.93603515625,0.0537109375,0.08642578125,-1.24359130859375,-0.11444091796875,1.6021728515625,GOOD
2021-11-06 02:09:07.305627,-1.9345703125,0.0546875,0.044921875,-0.40435791015625,-1.312255859375,0.78582763671875,GOOD
2021-11-06 02:09:07.665629,-1.9345703125,0.0546875,0.044921875,-0.40435791015625,-1.312255859375,0.78582763671875,GOOD
2021-11-06 02:09:08.026163,-1.9345703125,0.0546875,0.044921875,-0.40435791015625,-1.312255859375,0.78582763671875,GOOD
2021-11-06 02:09:08.385591,-1.94140625,0.0361328125,0.08544921875,-0.030517578125,-1.312255859375,0.90789794921875,GOOD
2021-11-06 02:09:08.745502,-1.94140625,0.0361328125,0.08544921875,-0.030517578125,-1.312255859375,0.90789794921875,GOOD
2021-11-06 02:09:09.105609,-1.94140625,0.0361328125,0.08544921875,-0.030517578125,-1.312255859375,0.90789794921875,GOOD
2021-11-06 02:09:09.465500,-1.94970703125,0.0517578125,0.09033203125,1.53350830078125,1.33514404296875,0.8392333984375,GOOD
2021-11-06 02:09:09.825503,-1.94970703125,0.0517578125,0.09033203125,1.53350830078125,1.33514404296875,0.8392333984375,GOOD
2021-11-06 02:09:10.185583,-1.94970703125,0.0517578125,0.09033203125,0.51116943359375,0.79345703125,0.79345703125,GOOD
2021-11-06 02:09:10.545542,-1.94677734375,0.056640625,0.09912109375,0.51116943359375,0.79345703125,0.79345703125,GOOD
2021-11-06 02:09:10.950464,-1.94677734375,0.056640625,0.09912109375,0.51116943359375,0.79345703125,0.79345703125,GOOD
2021-11-06 02:09:11.310549,-1.94091796875,0.0654296875,0.09814453125,1.708984375,-0.17547607421875,0.84686279296875,GOOD
2021-11-06 02:09:11.670505,-1.94091796875,0.0654296875,0.09814453125,1.708984375,-0.17547607421875,0.84686279296875,GOOD
2021-11-06 02:09:12.075499,-1.94091796875,0.0654296875,0.09814453125,1.708984375,-0.17547607421875,0.84686279296875,GOOD
2021-11-06 02:09:12.435367,-1.93359375,0.06005859375,0.1103515625,1.6937255859375,1.68609619140625,0.51116943359375,GOOD
2021-11-06 02:09:12.795434,-1.93359375,0.06005859375,0.1103515625,1.6937255859375,1.68609619140625,0.51116943359375,GOOD
2021-11-06 02:09:13.200385,-1.93359375,0.06005859375,0.1103515625,0.0,-0.2593994140625,0.49591064453125,GOOD
2021-11-06 02:09:13.560407,-1.93798828125,0.07275390625,0.087890625,0.0,-0.2593994140625,0.49591064453125,GOOD
2021-11-06 02:09:13.920904,-1.93798828125,0.07275390625,0.087890625,0.0,-0.2593994140625,0.49591064453125,GOOD
2021-11-06 02:09:14.280360,-1.94580078125,0.0791015625,0.07568359375,2.0751953125,1.5716552734375,0.18310546875,GOOD
2021-11-06 02:09:14.640349,-1.94580078125,0.0791015625,0.07568359375,2.0751953125,1.5716552734375,0.18310546875,GOOD
2021-11-06 02:09:15.090300,-1.94580078125,0.0791015625,0.07568359375,2.0751953125,1.5716552734375,0.18310546875,GOOD
2021-11-06 02:09:15.450336,-1.93798828125,0.064453125,0.107421875,-0.213623046875,-0.396728515625,0.579833984375,GOOD
2021-11-06 02:09:15.810277,-1.93798828125,0.064453125,0.107421875,-0.213623046875,-0.396728515625,0.579833984375,GOOD
2021-11-06 02:09:16.260276,-1.93798828125,0.064453125,0.107421875,0.244140625,0.9613037109375,-0.8392333984375,GOOD
2021-11-06 02:09:16.620214,-1.9453125,0.078125,0.12744140625,0.244140625,0.9613037109375,-0.8392333984375,GOOD
2021-11-06 02:09:16.980227,-1.9453125,0.078125,0.12744140625,0.244140625,0.9613037109375,-0.8392333984375,GOOD
2021-11-06 02:09:17.340176,-1.93212890625,0.0693359375,0.126953125,0.31280517578125,0.152587890625,0.335693359375,GOOD
2021-11-06 02:09:17.700201,-1.93212890625,0.0693359375,0.126953125,0.31280517578125,0.152587890625,0.335693359375,GOOD
2021-11-06 02:09:18.105172,-1.93212890625,0.0693359375,0.126953125,0.31280517578125,0.152587890625,0.335693359375,GOOD
2021-11-06 02:09:18.465186,-1.93408203125,0.0654296875,0.11376953125,0.98419189453125,0.0457763671875,0.46539306640625,GOOD
2021-11-06 02:09:18.870124,-1.93408203125,0.0654296875,0.11376953125,0.98419189453125,0.0457763671875,0.46539306640625,GOOD
2021-11-06 02:09:19.275175,-1.93408203125,0.0654296875,0.11376953125,1.373291015625,0.8392333984375,0.4119873046875,GOOD
2021-11-06 02:09:19.635740,-1.92724609375,0.064453125,0.12744140625,1.373291015625,0.8392333984375,0.4119873046875,GOOD
2021-11-06 02:09:19.995183,-1.92724609375,0.064453125,0.12744140625,1.373291015625,0.8392333984375,0.4119873046875,GOOD
2021-11-06 02:09:20.355085,-1.93310546875,0.06884765625,0.13720703125,0.51116943359375,0.30517578125,0.4119873046875,GOOD
2021-11-06 02:09:20.715139,-1.93310546875,0.06884765625,0.13720703125,0.51116943359375,0.30517578125,0.4119873046875,GOOD
2021-11-06 02:09:21.075133,-1.93310546875,0.06884765625,0.13720703125,0.51116943359375,0.30517578125,0.4119873046875,GOOD
2021-11-06 02:09:21.435046,-1.9384765625,0.07421875,0.1357421875,0.64849853515625,1.4495849609375,0.28228759765625,GOOD
2021-11-06 02:09:21.840020,-1.9384765625,0.07421875,0.1357421875,0.64849853515625,1.4495849609375,0.28228759765625,GOOD
2021-11-06 02:09:22.200082,-1.9384765625,0.07421875,0.1357421875,0.9918212890625,1.19781494140625,0.32806396484375,GOOD
2021-11-06 02:09:22.560056,-1.94140625,0.0732421875,0.11572265625,0.9918212890625,1.19781494140625,0.32806396484375,GOOD
2021-11-06 02:09:23.010024,-1.94140625,0.0732421875,0.11572265625,0.9918212890625,1.19781494140625,0.32806396484375,GOOD
2021-11-06 02:09:23.369991,-1.93310546875,0.05615234375,0.1064453125,-2.46429443359375,0.762939453125,0.64849853515625,GOOD
2021-11-06 02:09:23.774994,-1.93310546875,0.05615234375,0.1064453125,-2.46429443359375,0.762939453125,0.64849853515625,GOOD
2021-11-06 02:09:24.135034,-1.93310546875,0.05615234375,0.1064453125,-2.46429443359375,0.762939453125,0.64849853515625,GOOD
2021-11-06 02:09:24.494918,-1.9658203125,0.046875,0.03173828125,-2.655029296875,2.09808349609375,1.41143798828125,GOOD
2021-11-06 02:09:24.854957,-1.9658203125,0.046875,0.03173828125,-2.655029296875,2.09808349609375,1.41143798828125,GOOD
2021-11-06 02:09:25.259976,-1.9658203125,0.046875,0.03173828125,-1.3427734375,-2.95257568359375,1.739501953125,GOOD
2021-11-06 02:09:25.619950,-1.9453125,0.02880859375,0.0634765625,-1.3427734375,-2.95257568359375,1.739501953125,GOOD
2021-11-06 02:09:25.979906,-1.9453125,0.02880859375,0.0634765625,-1.3427734375,-2.95257568359375,1.739501953125,GOOD
2021-11-06 02:09:26.340387,-1.9345703125,0.04248046875,0.1220703125,3.21197509765625,6.9427490234375,0.457763671875,GOOD
2021-11-06 02:09:26.699862,-1.9345703125,0.04248046875,0.1220703125,3.21197509765625,6.9427490234375,0.457763671875,GOOD
2021-11-06 02:09:27.059910,-1.9345703125,0.04248046875,0.1220703125,3.21197509765625,6.9427490234375,0.457763671875,GOOD
2021-11-06 02:09:27.419867,-1.94873046875,0.07470703125,0.134765625,-1.9683837890625,2.227783203125,0.55694580078125,GOOD
2021-11-06 02:09:27.824862,-1.94873046875,0.07470703125,0.134765625,-1.9683837890625,2.227783203125,0.55694580078125,GOOD
2021-11-06 02:09:28.229891,-1.94873046875,0.07470703125,0.134765625,2.01416015625,0.86212158203125,0.17547607421875,GOOD
2021-11-06 02:09:28.589811,-1.9375,0.06884765625,0.12353515625,2.01416015625,0.86212158203125,0.17547607421875,GOOD
2021-11-06 02:09:28.994758,-1.9375,0.06884765625,0.12353515625,2.01416015625,0.86212158203125,0.17547607421875,GOOD
2021-11-06 02:09:29.354747,-1.931640625,0.05712890625,0.09814453125,0.45013427734375,0.61798095703125,0.06103515625,GOOD
2021-11-06 02:09:29.714820,-1.931640625,0.05712890625,0.09814453125,0.45013427734375,0.61798095703125,0.06103515625,GOOD
2021-11-06 02:09:30.074716,-1.931640625,0.05712890625,0.09814453125,0.45013427734375,0.61798095703125,0.06103515625,GOOD
2021-11-06 02:09:30.479903,-1.96044921875,0.07373046875,0.08544921875,2.41851806640625,-0.335693359375,0.6256103515625,GOOD
2021-11-06 02:09:30.884723,-1.96044921875,0.07373046875,0.08544921875,2.41851806640625,-0.335693359375,0.6256103515625,GOOD
2021-11-06 02:09:31.244665,-1.96044921875,0.07373046875,0.08544921875,0.05340576171875,-0.823974609375,0.12969970703125,GOOD
2021-11-06 02:09:31.604746,-1.9375,0.07275390625,0.0908203125,0.05340576171875,-0.823974609375,0.12969970703125,GOOD
2021-11-06 02:09:31.964699,-1.9375,0.07275390625,0.0908203125,0.05340576171875,-0.823974609375,0.12969970703125,GOOD
2021-11-06 02:09:32.325144,-1.92919921875,0.06005859375,0.14013671875,1.312255859375,0.92315673828125,1.0223388671875,GOOD
2021-11-06 02:09:32.684658,-1.92919921875,0.06005859375,0.14013671875,1.312255859375,0.92315673828125,1.0223388671875,GOOD
2021-11-06 02:09:33.045210,-1.92919921875,0.06005859375,0.14013671875,1.312255859375,0.92315673828125,1.0223388671875,GOOD
2021-11-06 02:09:33.494700,-1.93408203125,0.0751953125,0.11865234375,1.678466796875,0.38909912109375,0.57220458984375,GOOD
2021-11-06 02:09:33.899565,-1.93408203125,0.0751953125,0.11865234375,1.678466796875,0.38909912109375,0.57220458984375,GOOD
2021-11-06 02:09:34.259591,-1.93408203125,0.0751953125,0.11865234375,0.4119873046875,0.7171630859375,0.31280517578125,GOOD
2021-11-06 02:09:34.619624,-1.94580078125,0.07373046875,0.12841796875,0.4119873046875,0.7171630859375,0.31280517578125,GOOD
2021-11-06 02:09:34.979541,-1.94580078125,0.07373046875,0.12841796875,0.4119873046875,0.7171630859375,0.31280517578125,GOOD
2021-11-06 02:09:35.339543,-1.93212890625,0.07861328125,0.16796875,0.18310546875,-0.57220458984375,1.41143798828125,GOOD
2021-11-06 02:09:35.699479,-1.93212890625,0.07861328125,0.16796875,0.18310546875,-0.57220458984375,1.41143798828125,GOOD
2021-11-06 02:09:36.104522,-1.93212890625,0.07861328125,0.16796875,0.18310546875,-0.57220458984375,1.41143798828125,GOOD
2021-11-06 02:09:36.464476,-1.9375,0.06298828125,0.18603515625,0.91552734375,-0.45013427734375,-0.0762939453125,GOOD
2021-11-06 02:09:36.959474,-1.9375,0.06298828125,0.18603515625,0.91552734375,-0.45013427734375,-0.0762939453125,GOOD
2021-11-06 02:09:37.319444,-1.9375,0.05126953125,0.22509765625,0.42724609375,1.373291015625,1.16729736328125,GOOD
2021-11-06 02:09:37.679558,-1.9375,0.05126953125,0.22509765625,0.42724609375,1.373291015625,1.16729736328125,GOOD
2021-11-06 02:09:38.039389,-1.9375,0.05126953125,0.22509765625,0.42724609375,1.373291015625,1.16729736328125,GOOD
2021-11-06 02:09:38.399416,-1.9248046875,0.0654296875,0.19921875,1.5411376953125,0.26702880859375,0.20599365234375,GOOD
2021-11-06 02:09:38.759381,-1.9248046875,0.0654296875,0.19921875,1.5411376953125,0.26702880859375,0.20599365234375,GOOD
2021-11-06 02:09:39.119385,-1.9248046875,0.0654296875,0.19921875,1.5411376953125,0.26702880859375,0.20599365234375,GOOD
2021-11-06 02:09:39.479468,-1.927734375,0.056640625,0.21337890625,1.0223388671875,0.4730224609375,0.7781982421875,GOOD
2021-11-06 02:09:39.839379,-1.927734375,0.056640625,0.21337890625,1.0223388671875,0.4730224609375,0.7781982421875,GOOD
2021-11-06 02:09:40.199344,-1.927734375,0.056640625,0.21337890625,1.07574462890625,0.64849853515625,0.335693359375,GOOD
2021-11-06 02:09:40.559359,-1.9267578125,0.06103515625,0.2265625,1.07574462890625,0.64849853515625,0.335693359375,GOOD
2021-11-06 02:09:40.919315,-1.9267578125,0.06103515625,0.2265625,1.07574462890625,0.64849853515625,0.335693359375,GOOD
2021-11-06 02:09:41.279398,-1.9296875,0.046875,0.22900390625,1.0833740234375,0.640869140625,0.6256103515625,GOOD
2021-11-06 02:09:41.639308,-1.9296875,0.046875,0.22900390625,1.0833740234375,0.640869140625,0.6256103515625,GOOD
2021-11-06 02:09:41.999281,-1.9296875,0.046875,0.22900390625,1.0833740234375,0.640869140625,0.6256103515625,GOOD
2021-11-06 02:09:42.359239,-1.92138671875,0.06005859375,0.24169921875,1.1749267578125,1.06048583984375,0.46539306640625,GOOD
2021-11-06 02:09:42.719182,-1.92138671875,0.06005859375,0.24169921875,1.1749267578125,1.06048583984375,0.46539306640625,GOOD
2021-11-06 02:09:43.124229,-1.92138671875,0.06005859375,0.24169921875,1.1749267578125,1.06048583984375,0.46539306640625,GOOD
2021-11-06 02:09:43.484186,-1.92431640625,0.060546875,0.2421875,1.01470947265625,1.190185546875,1.02996826171875,GOOD
2021-11-06 02:09:43.889226,-1.92431640625,0.060546875,0.2421875,1.01470947265625,1.190185546875,1.02996826171875,GOOD
2021-11-06 02:09:44.249207,-1.92431640625,0.060546875,0.2421875,1.220703125,1.4190673828125,0.51116943359375,GOOD
2021-11-06 02:09:44.609212,-1.92529296875,0.0478515625,0.22119140625,1.220703125,1.4190673828125,0.51116943359375,GOOD
2021-11-06 02:09:45.014205,-1.92529296875,0.0478515625,0.22119140625,1.220703125,1.4190673828125,0.51116943359375,GOOD
2021-11-06 02:09:45.374231,-1.9287109375,0.05908203125,0.23046875,0.51116943359375,0.3509521484375,0.86212158203125,GOOD
2021-11-06 02:09:45.734142,-1.9287109375,0.05908203125,0.23046875,0.51116943359375,0.3509521484375,0.86212158203125,GOOD
2021-11-06 02:09:46.094142,-1.9287109375,0.05908203125,0.23046875,0.51116943359375,0.3509521484375,0.86212158203125,GOOD
2021-11-06 02:09:46.454116,-1.92529296875,0.04931640625,0.23193359375,0.6561279296875,0.49591064453125,0.74005126953125,GOOD
2021-11-06 02:09:46.814106,-1.92529296875,0.04931640625,0.23193359375,0.6561279296875,0.49591064453125,0.74005126953125,GOOD
2021-11-06 02:09:47.219112,-1.92529296875,0.04931640625,0.23193359375,0.6561279296875,0.49591064453125,0.74005126953125,GOOD
2021-11-06 02:09:47.579103,-1.91650390625,0.04736328125,0.2333984375,1.28936767578125,0.92315673828125,0.274658203125,GOOD
2021-11-06 02:09:47.984092,-1.91650390625,0.04736328125,0.2333984375,1.28936767578125,0.92315673828125,0.274658203125,GOOD
2021-11-06 02:09:48.389075,-1.9296875,0.0341796875,0.21630859375,1.4190673828125,0.20599365234375,0.5950927734375,GOOD
2021-11-06 02:09:48.749122,-1.9296875,0.0341796875,0.21630859375,1.4190673828125,0.20599365234375,0.5950927734375,GOOD
2021-11-06 02:09:49.109486,-1.9296875,0.0341796875,0.21630859375,1.4190673828125,0.20599365234375,0.5950927734375,GOOD
2021-11-06 02:09:49.469514,-1.91943359375,0.0517578125,0.24658203125,1.52587890625,0.9613037109375,0.42724609375,GOOD
2021-11-06 02:09:49.828935,-1.91943359375,0.0517578125,0.24658203125,1.52587890625,0.9613037109375,0.42724609375,GOOD
2021-11-06 02:09:50.189017,-1.91943359375,0.0517578125,0.24658203125,1.3580322265625,1.02996826171875,0.640869140625,GOOD
2021-11-06 02:09:50.548933,-1.92529296875,0.04638671875,0.2041015625,1.3580322265625,1.02996826171875,0.640869140625,GOOD
2021-11-06 02:09:50.953924,-1.92529296875,0.04638671875,0.2041015625,1.3580322265625,1.02996826171875,0.640869140625,GOOD
2021-11-06 02:09:51.314614,-1.92236328125,0.04541015625,0.2626953125,2.044677734375,-0.4425048828125,1.373291015625,GOOD
2021-11-06 02:09:51.763908,-1.92236328125,0.04541015625,0.2626953125,2.044677734375,-0.4425048828125,1.373291015625,GOOD
2021-11-06 02:09:52.168889,-1.92236328125,0.04541015625,0.2626953125,2.044677734375,-0.4425048828125,1.373291015625,GOOD
2021-11-06 02:09:52.528844,-1.921875,0.05517578125,0.26025390625,0.8392333984375,0.58746337890625,0.274658203125,GOOD
2021-11-06 02:09:52.888848,-1.921875,0.05517578125,0.26025390625,0.8392333984375,0.58746337890625,0.274658203125,GOOD
2021-11-06 02:09:53.248793,-1.921875,0.05517578125,0.26025390625,0.946044921875,-0.1373291015625,0.48065185546875,GOOD
2021-11-06 02:09:53.608829,-1.92724609375,0.0546875,0.27880859375,0.946044921875,-0.1373291015625,0.48065185546875,GOOD
2021-11-06 02:09:54.013795,-1.92724609375,0.0546875,0.27880859375,0.946044921875,-0.1373291015625,0.48065185546875,GOOD
2021-11-06 02:09:54.373805,-1.93408203125,0.05908203125,0.26708984375,0.86212158203125,0.7171630859375,0.83160400390625,GOOD
2021-11-06 02:09:54.733784,-1.93408203125,0.05908203125,0.26708984375,0.86212158203125,0.7171630859375,0.83160400390625,GOOD
2021-11-06 02:09:55.093875,-1.93408203125,0.05908203125,0.26708984375,0.86212158203125,0.7171630859375,0.83160400390625,GOOD
2021-11-06 02:09:55.453785,-1.9267578125,0.056640625,0.25830078125,1.33514404296875,0.9002685546875,0.54168701171875,GOOD
2021-11-06 02:09:55.813864,-1.9267578125,0.056640625,0.25830078125,1.33514404296875,0.9002685546875,0.54168701171875,GOOD
2021-11-06 02:09:56.218725,-1.9267578125,0.056640625,0.25830078125,0.74005126953125,0.823974609375,0.4425048828125,GOOD
2021-11-06 02:09:56.578807,-1.92529296875,0.056640625,0.26513671875,0.74005126953125,0.823974609375,0.4425048828125,GOOD
2021-11-06 02:09:56.938725,-1.92529296875,0.056640625,0.26513671875,0.74005126953125,0.823974609375,0.4425048828125,GOOD
2021-11-06 02:09:57.298709,-1.92822265625,0.052734375,0.2529296875,0.69427490234375,0.4730224609375,0.41961669921875,GOOD
2021-11-06 02:09:57.658727,-1.92822265625,0.052734375,0.2529296875,0.69427490234375,0.4730224609375,0.41961669921875,GOOD
2021-11-06 02:09:58.018790,-1.92822265625,0.052734375,0.2529296875,0.69427490234375,0.4730224609375,0.41961669921875,GOOD
2021-11-06 02:09:58.378697,-1.923828125,0.0625,0.25927734375,1.38092041015625,0.99945068359375,0.43487548828125,GOOD
2021-11-06 02:09:58.738657,-1.923828125,0.0625,0.25927734375,1.38092041015625,0.99945068359375,0.43487548828125,GOOD
2021-11-06 02:09:59.098693,-1.923828125,0.0625,0.25927734375,1.38092041015625,0.99945068359375,0.43487548828125,GOOD
2021-11-06 02:09:59.458642,-1.91845703125,0.0654296875,0.25048828125,0.90789794921875,0.67138671875,0.75531005859375,GOOD
2021-11-06 02:09:59.818587,-1.91845703125,0.0654296875,0.25048828125,0.90789794921875,0.67138671875,0.75531005859375,GOOD
2021-11-06 02:10:00.178669,-1.91845703125,0.0654296875,0.25048828125,0.91552734375,0.84686279296875,0.91552734375,GOOD
2021-11-06 02:10:00.538627,-1.91943359375,0.06201171875,0.24169921875,0.91552734375,0.84686279296875,0.91552734375,GOOD
2021-11-06 02:10:00.898610,-1.91943359375,0.06201171875,0.24169921875,0.91552734375,0.84686279296875,0.91552734375,GOOD
2021-11-06 02:10:01.258664,-1.91943359375,0.06201171875,0.24169921875,1.04522705078125,0.7171630859375,0.3662109375,GOOD
2021-11-06 02:10:01.618566,-1.92529296875,0.05712890625,0.2412109375,1.04522705078125,0.7171630859375,0.3662109375,GOOD
2021-11-06 02:10:01.978591,-1.92529296875,0.05712890625,0.2412109375,1.04522705078125,0.7171630859375,0.3662109375,GOOD
2021-11-06 02:10:02.338551,-1.92724609375,0.0556640625,0.2666015625,1.251220703125,0.87738037109375,0.244140625,GOOD
2021-11-06 02:10:02.743568,-1.92724609375,0.0556640625,0.2666015625,1.251220703125,0.87738037109375,0.244140625,GOOD
2021-11-06 02:10:03.103559,-1.92724609375,0.0556640625,0.2666015625,1.251220703125,0.87738037109375,0.244140625,GOOD
2021-11-06 02:10:03.463537,-1.9228515625,0.05859375,0.24072265625,1.18255615234375,0.518798828125,0.49591064453125,GOOD
2021-11-06 02:10:03.869048,-1.9228515625,0.05859375,0.24072265625,1.18255615234375,0.518798828125,0.49591064453125,GOOD
2021-11-06 02:10:04.228441,-1.9228515625,0.05859375,0.24072265625,0.74005126953125,1.3275146484375,0.457763671875,GOOD
2021-11-06 02:10:04.588463,-1.92333984375,0.05810546875,0.24609375,0.74005126953125,1.3275146484375,0.457763671875,GOOD
2021-11-06 02:10:04.948460,-1.92333984375,0.05810546875,0.24609375,0.74005126953125,1.3275146484375,0.457763671875,GOOD
2021-11-06 02:10:05.353399,-1.92333984375,0.04443359375,0.2431640625,-0.06103515625,-0.42724609375,0.518798828125,GOOD
2021-11-06 02:10:05.713460,-1.92333984375,0.04443359375,0.2431640625,-0.06103515625,-0.42724609375,0.518798828125,GOOD
2021-11-06 02:10:06.073418,-1.92333984375,0.04443359375,0.2431640625,-0.06103515625,-0.42724609375,0.518798828125,GOOD
2021-11-06 02:10:06.433357,-1.91650390625,0.04248046875,0.2646484375,1.48773193359375,0.98419189453125,0.78582763671875,GOOD
2021-11-06 02:10:06.838367,-1.91650390625,0.04248046875,0.2646484375,1.48773193359375,0.98419189453125,0.78582763671875,GOOD
2021-11-06 02:10:07.198862,-1.91650390625,0.04248046875,0.2646484375,0.92315673828125,0.81634521484375,0.8392333984375,GOOD
2021-11-06 02:10:07.558352,-1.923828125,0.0576171875,0.26220703125,0.92315673828125,0.81634521484375,0.8392333984375,GOOD
2021-11-06 02:10:07.918259,-1.923828125,0.0576171875,0.26220703125,0.92315673828125,0.81634521484375,0.8392333984375,GOOD
2021-11-06 02:10:08.278301,-1.92138671875,0.056640625,0.271484375,1.04522705078125,0.6561279296875,0.6866455078125,GOOD
2021-11-06 02:10:08.638262,-1.92138671875,0.056640625,0.271484375,1.04522705078125,0.6561279296875,0.6866455078125,GOOD
2021-11-06 02:10:08.998269,-1.92138671875,0.056640625,0.271484375,1.04522705078125,0.6561279296875,0.6866455078125,GOOD
2021-11-06 02:10:09.448251,-1.93896484375,0.02490234375,0.20458984375,0.30517578125,2.05230712890625,-0.244140625,GOOD
2021-11-06 02:10:09.808246,-1.93896484375,0.02490234375,0.20458984375,0.30517578125,2.05230712890625,-0.244140625,GOOD
2021-11-06 02:10:10.168255,-1.93896484375,0.02490234375,0.20458984375,0.30517578125,2.05230712890625,-0.244140625,GOOD
2021-11-06 02:10:10.528281,-1.9345703125,0.0341796875,0.17333984375,0.3204345703125,-0.0762939453125,0.9918212890625,GOOD
2021-11-06 02:10:10.888247,-1.9345703125,0.0341796875,0.17333984375,0.3204345703125,-0.0762939453125,0.9918212890625,GOOD
2021-11-06 02:10:11.248196,-1.9345703125,0.0341796875,0.17333984375,-1.80816650390625,-3.84521484375,-0.244140625,GOOD
2021-11-06 02:10:11.608203,-1.9033203125,0.015625,0.40185546875,-1.80816650390625,-3.84521484375,-0.244140625,GOOD
2021-11-06 02:10:11.968264,-1.9033203125,0.015625,0.40185546875,-1.80816650390625,-3.84521484375,-0.244140625,GOOD
2021-11-06 02:10:12.328206,-1.8486328125,-0.0869140625,0.57421875,0.19073486328125,-5.98907470703125,-1.495361328125,GOOD
2021-11-06 02:10:12.688201,-1.8486328125,-0.0869140625,0.57421875,0.19073486328125,-5.98907470703125,-1.495361328125,GOOD
2021-11-06 02:10:13.093149,-1.8486328125,-0.0869140625,0.57421875,0.19073486328125,-5.98907470703125,-1.495361328125,GOOD
2021-11-06 02:10:13.453170,-1.8193359375,-0.04443359375,0.69873046875,2.227783203125,1.4801025390625,0.1220703125,BAD
2021-11-06 02:10:13.858202,-1.8193359375,-0.04443359375,0.69873046875,2.227783203125,1.4801025390625,0.1220703125,BAD
2021-11-06 02:10:14.308013,-1.8193359375,-0.04443359375,0.69873046875,0.96893310546875,0.9002685546875,0.2593994140625,BAD
2021-11-06 02:10:14.668090,-1.81640625,-0.06005859375,0.69287109375,0.96893310546875,0.9002685546875,0.2593994140625,BAD
2021-11-06 02:10:15.028091,-1.81640625,-0.06005859375,0.69287109375,0.96893310546875,0.9002685546875,0.2593994140625,BAD
2021-11-06 02:10:15.388093,-1.81689453125,-0.07470703125,0.70068359375,1.18255615234375,0.40435791015625,0.54168701171875,BAD
2021-11-06 02:10:15.793072,-1.81689453125,-0.07470703125,0.70068359375,1.18255615234375,0.40435791015625,0.54168701171875,BAD
2021-11-06 02:10:16.153065,-1.81689453125,-0.07470703125,0.70068359375,1.18255615234375,0.40435791015625,0.54168701171875,BAD
2021-11-06 02:10:16.513061,-1.8330078125,-0.078125,0.677734375,1.21307373046875,2.0751953125,-0.457763671875,BAD
2021-11-06 02:10:16.873077,-1.8330078125,-0.078125,0.677734375,1.21307373046875,2.0751953125,-0.457763671875,BAD
2021-11-06 02:10:17.233091,-1.8330078125,-0.078125,0.677734375,1.04522705078125,-0.4425048828125,-0.4119873046875,BAD
2021-11-06 02:10:17.593029,-1.818359375,-0.05322265625,0.68310546875,1.04522705078125,-0.4425048828125,-0.4119873046875,BAD
2021-11-06 02:10:17.952970,-1.818359375,-0.05322265625,0.68310546875,1.04522705078125,-0.4425048828125,-0.4119873046875,BAD
2021-11-06 02:10:18.313035,-1.78369140625,-0.08056640625,0.80810546875,3.08990478515625,-2.29644775390625,-0.091552734375,BAD
2021-11-06 02:10:18.672970,-1.78369140625,-0.08056640625,0.80810546875,3.08990478515625,-2.29644775390625,-0.091552734375,BAD
2021-11-06 02:10:19.033448,-1.78369140625,-0.08056640625,0.80810546875,3.08990478515625,-2.29644775390625,-0.091552734375,BAD
2021-11-06 02:10:19.392910,-1.79736328125,-0.0986328125,0.74951171875,1.51824951171875,0.8697509765625,-0.701904296875,BAD
2021-11-06 02:10:19.797936,-1.79736328125,-0.0986328125,0.74951171875,1.51824951171875,0.8697509765625,-0.701904296875,BAD
2021-11-06 02:10:20.157883,-1.79736328125,-0.0986328125,0.74951171875,1.51824951171875,0.8697509765625,-0.701904296875,BAD
2021-11-06 02:10:20.517905,-1.79833984375,-0.111328125,0.751953125,1.434326171875,1.312255859375,-0.35858154296875,BAD
2021-11-06 02:10:20.877878,-1.79833984375,-0.111328125,0.751953125,1.434326171875,1.312255859375,-0.35858154296875,BAD
2021-11-06 02:10:21.237885,-1.79833984375,-0.111328125,0.751953125,1.30462646484375,0.30517578125,0.80108642578125,BAD
2021-11-06 02:10:21.597915,-1.7900390625,-0.1201171875,0.74462890625,1.30462646484375,0.30517578125,0.80108642578125,BAD
2021-11-06 02:10:22.002869,-1.7900390625,-0.1201171875,0.74462890625,1.30462646484375,0.30517578125,0.80108642578125,BAD
2021-11-06 02:10:22.362845,-1.8125,-0.099609375,0.70361328125,1.5411376953125,2.5482177734375,-0.5035400390625,BAD
2021-11-06 02:10:22.722801,-1.8125,-0.099609375,0.70361328125,1.5411376953125,2.5482177734375,-0.5035400390625,BAD
2021-11-06 02:10:23.127828,-1.8125,-0.099609375,0.70361328125,1.5411376953125,2.5482177734375,-0.5035400390625,BAD
2021-11-06 02:10:23.487862,-1.80224609375,-0.13525390625,0.6845703125,0.23651123046875,0.96893310546875,-0.83160400390625,BAD
2021-11-06 02:10:23.847763,-1.80224609375,-0.13525390625,0.6845703125,0.23651123046875,0.96893310546875,-0.83160400390625,BAD
2021-11-06 02:10:24.208244,-1.80224609375,-0.13525390625,0.6845703125,0.55694580078125,1.1138916015625,0.3814697265625,BAD
2021-11-06 02:10:24.567796,-1.81591796875,-0.13671875,0.6953125,0.55694580078125,1.1138916015625,0.3814697265625,BAD
2021-11-06 02:10:24.928209,-1.81591796875,-0.13671875,0.6953125,0.55694580078125,1.1138916015625,0.3814697265625,BAD
2021-11-06 02:10:25.287680,-1.82275390625,-0.1484375,0.69287109375,1.40380859375,0.89263916015625,0.22125244140625,BAD
2021-11-06 02:10:25.647744,-1.82275390625,-0.1484375,0.69287109375,1.40380859375,0.89263916015625,0.22125244140625,BAD
2021-11-06 02:10:26.097694,-1.82275390625,-0.1484375,0.69287109375,1.40380859375,0.89263916015625,0.22125244140625,BAD
2021-11-06 02:10:26.547726,-1.81201171875,-0.14892578125,0.712890625,1.27410888671875,0.55694580078125,0.5035400390625,BAD
2021-11-06 02:10:26.907701,-1.81201171875,-0.14892578125,0.712890625,1.27410888671875,0.55694580078125,0.5035400390625,BAD
2021-11-06 02:10:27.267666,-1.83740234375,-0.19775390625,0.5908203125,-0.06103515625,2.49481201171875,-2.716064453125,BAD
2021-11-06 02:10:27.717684,-1.83740234375,-0.19775390625,0.5908203125,-0.06103515625,2.49481201171875,-2.716064453125,BAD
2021-11-06 02:10:28.077638,-1.83740234375,-0.19775390625,0.5908203125,-0.06103515625,2.49481201171875,-2.716064453125,BAD
2021-11-06 02:10:28.437614,-1.8271484375,-0.22021484375,0.6015625,1.708984375,-0.54168701171875,1.10626220703125,BAD
2021-11-06 02:10:28.797685,-1.8271484375,-0.22021484375,0.6015625,1.708984375,-0.54168701171875,1.10626220703125,BAD
2021-11-06 02:10:29.157599,-1.8271484375,-0.22021484375,0.6015625,1.708984375,-0.54168701171875,1.10626220703125,BAD
2021-11-06 02:10:29.517598,-1.81298828125,-0.2158203125,0.68505859375,0.335693359375,-1.251220703125,1.50299072265625,BAD
2021-11-06 02:10:29.967639,-1.81298828125,-0.2158203125,0.68505859375,0.335693359375,-1.251220703125,1.50299072265625,BAD
2021-11-06 02:10:30.327605,-1.80078125,-0.205078125,0.72314453125,0.18310546875,0.1678466796875,0.06103515625,BAD
2021-11-06 02:10:30.687472,-1.80078125,-0.205078125,0.72314453125,0.18310546875,0.1678466796875,0.06103515625,BAD
2021-11-06 02:10:31.047548,-1.80078125,-0.205078125,0.72314453125,0.18310546875,0.1678466796875,0.06103515625,BAD
2021-11-06 02:10:31.407547,-1.8076171875,-0.21044921875,0.68505859375,1.53350830078125,1.04522705078125,1.0528564453125,BAD
2021-11-06 02:10:31.767488,-1.8076171875,-0.21044921875,0.68505859375,1.53350830078125,1.04522705078125,1.0528564453125,BAD
2021-11-06 02:10:32.127477,-1.8076171875,-0.21044921875,0.68505859375,1.53350830078125,1.04522705078125,1.0528564453125,BAD
2021-11-06 02:10:32.487373,-1.80029296875,-0.20556640625,0.69677734375,0.335693359375,-0.02288818359375,0.96893310546875,BAD
2021-11-06 02:10:32.892464,-1.80029296875,-0.20556640625,0.69677734375,0.335693359375,-0.02288818359375,0.96893310546875,BAD
2021-11-06 02:10:33.252434,-1.80029296875,-0.20556640625,0.69677734375,1.68609619140625,0.64849853515625,1.36566162109375,BAD
2021-11-06 02:10:33.612421,-1.798828125,-0.1962890625,0.70068359375,1.68609619140625,0.64849853515625,1.36566162109375,BAD
2021-11-06 02:10:33.972463,-1.798828125,-0.1962890625,0.70068359375,1.68609619140625,0.64849853515625,1.36566162109375,BAD
2021-11-06 02:10:34.332381,-1.78173828125,-0.166015625,0.72216796875,1.02996826171875,0.46539306640625,0.48065185546875,BAD
2021-11-06 02:10:34.692367,-1.78173828125,-0.166015625,0.72216796875,1.02996826171875,0.46539306640625,0.48065185546875,BAD
2021-11-06 02:10:35.052452,-1.78173828125,-0.166015625,0.72216796875,1.02996826171875,0.46539306640625,0.48065185546875,BAD
2021-11-06 02:10:35.412858,-1.818359375,-0.18701171875,0.6962890625,0.3662109375,1.30462646484375,-0.274658203125,BAD
2021-11-06 02:10:35.772369,-1.818359375,-0.18701171875,0.6962890625,0.3662109375,1.30462646484375,-0.274658203125,BAD
2021-11-06 02:10:36.177370,-1.818359375,-0.18701171875,0.6962890625,0.8392333984375,1.15966796875,0.67138671875,BAD
2021-11-06 02:10:36.537387,-1.7841796875,-0.20947265625,0.71533203125,0.8392333984375,1.15966796875,0.67138671875,BAD
2021-11-06 02:10:36.897418,-1.7841796875,-0.20947265625,0.71533203125,0.8392333984375,1.15966796875,0.67138671875,BAD
2021-11-06 02:10:37.257349,-1.7841796875,-0.20947265625,0.71533203125,-1.06048583984375,0.46539306640625,2.0599365234375,BAD
2021-11-06 02:10:37.617320,-1.8037109375,-0.2421875,0.68603515625,-1.06048583984375,0.46539306640625,2.0599365234375,BAD
2021-11-06 02:10:37.977295,-1.8037109375,-0.2421875,0.68603515625,-1.06048583984375,0.46539306640625,2.0599365234375,BAD
2021-11-06 02:10:38.337305,-1.83154296875,-0.22119140625,0.65625,1.2664794921875,1.1138916015625,-0.26702880859375,BAD
2021-11-06 02:10:38.697308,-1.83154296875,-0.22119140625,0.65625,1.2664794921875,1.1138916015625,-0.26702880859375,BAD
2021-11-06 02:10:39.102205,-1.83154296875,-0.22119140625,0.65625,1.2664794921875,1.1138916015625,-0.26702880859375,BAD
2021-11-06 02:10:39.462226,-1.81201171875,-0.21923828125,0.69091796875,0.16021728515625,0.83160400390625,0.823974609375,BAD
2021-11-06 02:10:39.867225,-1.81201171875,-0.21923828125,0.69091796875,0.16021728515625,0.83160400390625,0.823974609375,BAD
2021-11-06 02:10:40.272281,-1.81201171875,-0.21923828125,0.69091796875,1.33514404296875,1.434326171875,0.457763671875,BAD
2021-11-06 02:10:40.632251,-1.80419921875,-0.20361328125,0.69775390625,1.33514404296875,1.434326171875,0.457763671875,BAD
2021-11-06 02:10:41.082182,-1.80419921875,-0.20361328125,0.69775390625,1.33514404296875,1.434326171875,0.457763671875,BAD
2021-11-06 02:10:41.442186,-1.826171875,-0.2119140625,0.669921875,0.9002685546875,0.25177001953125,0.99945068359375,BAD
2021-11-06 02:10:41.802691,-1.826171875,-0.2119140625,0.669921875,0.9002685546875,0.25177001953125,0.99945068359375,BAD
2021-11-06 02:10:42.207142,-1.826171875,-0.2119140625,0.669921875,0.60272216796875,0.79345703125,0.30517578125,BAD
2021-11-06 02:10:42.567148,-1.7880859375,-0.21826171875,0.68505859375,0.60272216796875,0.79345703125,0.30517578125,BAD
2021-11-06 02:10:42.927215,-1.7880859375,-0.21826171875,0.68505859375,0.60272216796875,0.79345703125,0.30517578125,BAD
2021-11-06 02:10:43.332192,-1.810546875,-0.21142578125,0.6708984375,1.2969970703125,0.9002685546875,1.7242431640625,BAD
2021-11-06 02:10:43.692162,-1.810546875,-0.21142578125,0.6708984375,1.2969970703125,0.9002685546875,1.7242431640625,BAD
2021-11-06 02:10:44.052136,-1.810546875,-0.21142578125,0.6708984375,1.2969970703125,0.9002685546875,1.7242431640625,BAD
2021-11-06 02:10:44.457095,-1.8046875,-0.234375,0.66796875,2.55584716796875,0.2899169921875,1.312255859375,BAD
2021-11-06 02:10:44.817066,-1.8046875,-0.234375,0.66796875,2.55584716796875,0.2899169921875,1.312255859375,BAD
2021-11-06 02:10:45.177124,-1.8046875,-0.234375,0.66796875,0.86212158203125,0.762939453125,0.152587890625,BAD
2021-11-06 02:10:45.537181,-1.81884765625,-0.21630859375,0.66552734375,0.86212158203125,0.762939453125,0.152587890625,BAD
2021-11-06 02:10:45.942088,-1.81884765625,-0.21630859375,0.66552734375,0.86212158203125,0.762939453125,0.152587890625,BAD
2021-11-06 02:10:46.301980,-1.818359375,-0.21923828125,0.65771484375,1.0986328125,0.86212158203125,0.67901611328125,BAD
2021-11-06 02:10:46.662051,-1.818359375,-0.21923828125,0.65771484375,1.0986328125,0.86212158203125,0.67901611328125,BAD
2021-11-06 02:10:47.021997,-1.818359375,-0.21923828125,0.65771484375,1.0986328125,0.86212158203125,0.67901611328125,BAD
2021-11-06 02:10:47.427556,-1.81884765625,-0.21923828125,0.669921875,0.518798828125,1.41143798828125,1.46484375,BAD
2021-11-06 02:10:47.786989,-1.81884765625,-0.21923828125,0.669921875,0.518798828125,1.41143798828125,1.46484375,BAD
2021-11-06 02:10:48.146967,-1.81884765625,-0.21923828125,0.669921875,0.518798828125,1.41143798828125,1.46484375,BAD
2021-11-06 02:10:48.506993,-1.8037109375,-0.2158203125,0.68359375,2.37274169921875,0.80108642578125,0.58746337890625,BAD
2021-11-06 02:10:48.866935,-1.8037109375,-0.2158203125,0.68359375,2.37274169921875,0.80108642578125,0.58746337890625,BAD
2021-11-06 02:10:49.226947,-1.8037109375,-0.2158203125,0.68359375,2.55584716796875,0.20599365234375,1.220703125,BAD
2021-11-06 02:10:49.586976,-1.802734375,-0.21484375,0.6591796875,2.55584716796875,0.20599365234375,1.220703125,BAD
2021-11-06 02:10:49.946931,-1.802734375,-0.21484375,0.6591796875,2.55584716796875,0.20599365234375,1.220703125,BAD
2021-11-06 02:10:50.351861,-1.79541015625,-0.201171875,0.6650390625,1.5869140625,1.373291015625,0.79345703125,BAD
2021-11-06 02:10:50.712504,-1.79541015625,-0.201171875,0.6650390625,1.5869140625,1.373291015625,0.79345703125,BAD
2021-11-06 02:10:51.071880,-1.79541015625,-0.201171875,0.6650390625,1.5869140625,1.373291015625,0.79345703125,BAD
2021-11-06 02:10:51.431867,-1.79345703125,-0.2333984375,0.7001953125,0.55694580078125,0.762939453125,0.8087158203125,BAD
2021-11-06 02:10:51.836919,-1.79345703125,-0.2333984375,0.7001953125,0.55694580078125,0.762939453125,0.8087158203125,BAD
2021-11-06 02:10:52.241851,-1.79345703125,-0.2333984375,0.7001953125,1.15966796875,0.92315673828125,1.02996826171875,BAD
2021-11-06 02:10:52.646893,-1.78515625,-0.21435546875,0.68310546875,1.15966796875,0.92315673828125,1.02996826171875,BAD
2021-11-06 02:10:53.007313,-1.78515625,-0.21435546875,0.68310546875,1.15966796875,0.92315673828125,1.02996826171875,BAD
2021-11-06 02:10:53.366790,-1.80810546875,-0.21435546875,0.68359375,0.63323974609375,0.457763671875,0.31280517578125,BAD
2021-11-06 02:10:53.726784,-1.80810546875,-0.21435546875,0.68359375,0.63323974609375,0.457763671875,0.31280517578125,BAD
2021-11-06 02:10:54.086757,-1.80810546875,-0.21435546875,0.68359375,0.63323974609375,0.457763671875,0.31280517578125,BAD
2021-11-06 02:10:54.491788,-1.80224609375,-0.20751953125,0.6728515625,0.17547607421875,1.129150390625,0.3814697265625,BAD
2021-11-06 02:10:54.851693,-1.80224609375,-0.20751953125,0.6728515625,0.17547607421875,1.129150390625,0.3814697265625,BAD
2021-11-06 02:10:55.211745,-1.80224609375,-0.20751953125,0.6728515625,0.1678466796875,0.67901611328125,1.03759765625,BAD
2021-11-06 02:10:55.617238,-1.80517578125,-0.2109375,0.677734375,0.1678466796875,0.67901611328125,1.03759765625,BAD
2021-11-06 02:10:55.976753,-1.80517578125,-0.2109375,0.677734375,0.1678466796875,0.67901611328125,1.03759765625,BAD
2021-11-06 02:10:56.382241,-1.81103515625,-0.205078125,0.68017578125,0.90789794921875,0.06866455078125,0.23651123046875,BAD
2021-11-06 02:10:56.786663,-1.81103515625,-0.205078125,0.68017578125,0.90789794921875,0.06866455078125,0.23651123046875,BAD
2021-11-06 02:10:57.146796,-1.81103515625,-0.205078125,0.68017578125,0.90789794921875,0.06866455078125,0.23651123046875,BAD
2021-11-06 02:10:57.551665,-1.80419921875,-0.20947265625,0.6845703125,0.74005126953125,0.72479248046875,0.640869140625,BAD
2021-11-06 02:10:57.956623,-1.80419921875,-0.20947265625,0.6845703125,0.74005126953125,0.72479248046875,0.640869140625,BAD
2021-11-06 02:10:58.361599,-1.80029296875,-0.22021484375,0.6865234375,0.92315673828125,0.86212158203125,0.52642822265625,BAD
2021-11-06 02:10:58.722119,-1.80029296875,-0.22021484375,0.6865234375,0.92315673828125,0.86212158203125,0.52642822265625,BAD
2021-11-06 02:10:59.081571,-1.80029296875,-0.22021484375,0.6865234375,0.92315673828125,0.86212158203125,0.52642822265625,BAD
2021-11-06 02:10:59.441615,-1.8017578125,-0.2333984375,0.69287109375,1.03759765625,0.57220458984375,0.08392333984375,BAD
2021-11-06 02:10:59.801591,-1.8017578125,-0.2333984375,0.69287109375,1.03759765625,0.57220458984375,0.08392333984375,BAD
2021-11-06 02:11:00.206618,-1.8017578125,-0.2333984375,0.69287109375,1.5716552734375,-0.96893310546875,0.48065185546875,BAD
2021-11-06 02:11:00.611571,-1.796875,-0.224609375,0.71533203125,1.5716552734375,-0.96893310546875,0.48065185546875,BAD
2021-11-06 02:11:01.016568,-1.796875,-0.224609375,0.71533203125,1.5716552734375,-0.96893310546875,0.48065185546875,BAD
2021-11-06 02:11:01.376557,-1.791015625,-0.228515625,0.7265625,1.46484375,-1.54876708984375,0.3814697265625,BAD
2021-11-06 02:11:01.781544,-1.791015625,-0.228515625,0.7265625,1.46484375,-1.54876708984375,0.3814697265625,BAD
2021-11-06 02:11:02.141471,-1.791015625,-0.228515625,0.7265625,1.46484375,-1.54876708984375,0.3814697265625,BAD
2021-11-06 02:11:02.501408,-1.787109375,-0.2255859375,0.73193359375,1.10626220703125,0.9613037109375,0.63323974609375,BAD
2021-11-06 02:11:02.862095,-1.787109375,-0.2255859375,0.73193359375,1.10626220703125,0.9613037109375,0.63323974609375,BAD
2021-11-06 02:11:03.266435,-1.787109375,-0.2255859375,0.73193359375,1.24359130859375,0.9307861328125,0.28228759765625,BAD
2021-11-06 02:11:03.626470,-1.78173828125,-0.2216796875,0.7373046875,1.24359130859375,0.9307861328125,0.28228759765625,BAD
2021-11-06 02:11:04.031452,-1.78173828125,-0.2216796875,0.7373046875,1.24359130859375,0.9307861328125,0.28228759765625,BAD
2021-11-06 02:11:04.391489,-1.79638671875,-0.20751953125,0.73291015625,1.35040283203125,3.28826904296875,0.1373291015625,BAD
2021-11-06 02:11:04.886453,-1.79638671875,-0.20751953125,0.73291015625,1.35040283203125,3.28826904296875,0.1373291015625,BAD
2021-11-06 02:11:05.246473,-1.79638671875,-0.20751953125,0.73291015625,-1.8768310546875,0.55694580078125,1.83868408203125,BAD
2021-11-06 02:11:05.696421,-1.79638671875,-0.158203125,0.6591796875,-1.8768310546875,0.55694580078125,1.83868408203125,BAD
2021-11-06 02:11:06.056363,-1.79638671875,-0.158203125,0.6591796875,-1.8768310546875,0.55694580078125,1.83868408203125,BAD
2021-11-06 02:11:06.416355,-1.91943359375,0.00048828125,0.2392578125,16.21246337890625,11.20758056640625,7.781982421875,BAD
2021-11-06 02:11:06.776311,-1.91943359375,0.00048828125,0.2392578125,16.21246337890625,11.20758056640625,7.781982421875,BAD
2021-11-06 02:11:07.136386,-1.91943359375,0.00048828125,0.2392578125,16.21246337890625,11.20758056640625,7.781982421875,BAD
2021-11-06 02:11:07.496378,-1.953125,0.0068359375,-0.00390625,4.17327880859375,-1.9683837890625,0.16021728515625,BAD
2021-11-06 02:11:07.856331,-1.953125,0.0068359375,-0.00390625,4.17327880859375,-1.9683837890625,0.16021728515625,BAD
2021-11-06 02:11:08.261332,-1.953125,0.0068359375,-0.00390625,-1.13677978515625,-1.0986328125,0.335693359375,GOOD
2021-11-06 02:11:08.621345,-1.93212890625,0.0341796875,0.103515625,-1.13677978515625,-1.0986328125,0.335693359375,GOOD
2021-11-06 02:11:08.981252,-1.93212890625,0.0341796875,0.103515625,-1.13677978515625,-1.0986328125,0.335693359375,GOOD
2021-11-06 02:11:09.341373,-1.939453125,0.04248046875,0.14404296875,-0.4425048828125,-1.3580322265625,1.35040283203125,GOOD
2021-11-06 02:11:09.701298,-1.939453125,0.04248046875,0.14404296875,-0.4425048828125,-1.3580322265625,1.35040283203125,GOOD
2021-11-06 02:11:10.151256,-1.939453125,0.04248046875,0.14404296875,-0.4425048828125,-1.3580322265625,1.35040283203125,GOOD
2021-11-06 02:11:10.511239,-1.9306640625,0.0234375,0.220703125,1.2664794921875,-0.86212158203125,0.5645751953125,GOOD
2021-11-06 02:11:10.916270,-1.9306640625,0.0234375,0.220703125,1.2664794921875,-0.86212158203125,0.5645751953125,GOOD
2021-11-06 02:11:11.321228,-1.92919921875,0.01611328125,0.212890625,1.0986328125,-0.244140625,0.66375732421875,GOOD
2021-11-06 02:11:11.726230,-1.92919921875,0.01611328125,0.212890625,1.0986328125,-0.244140625,0.66375732421875,GOOD
2021-11-06 02:11:12.086246,-1.92919921875,0.01611328125,0.212890625,1.0986328125,-0.244140625,0.66375732421875,GOOD
2021-11-06 02:11:12.446246,-1.923828125,0.02392578125,0.22607421875,3.936767578125,2.13623046875,0.40435791015625,GOOD
2021-11-06 02:11:12.806277,-1.923828125,0.02392578125,0.22607421875,3.936767578125,2.13623046875,0.40435791015625,GOOD
2021-11-06 02:11:13.166170,-1.923828125,0.02392578125,0.22607421875,3.936767578125,2.13623046875,0.40435791015625,GOOD
2021-11-06 02:11:13.526212,-1.927734375,0.044921875,0.21533203125,3.23486328125,-1.312255859375,0.8697509765625,GOOD
2021-11-06 02:11:13.886093,-1.927734375,0.044921875,0.21533203125,3.23486328125,-1.312255859375,0.8697509765625,GOOD
2021-11-06 02:11:14.291213,-1.927734375,0.044921875,0.21533203125,1.4801025390625,0.99945068359375,1.0223388671875,GOOD
2021-11-06 02:11:14.651158,-1.91845703125,0.0244140625,0.22802734375,1.4801025390625,0.99945068359375,1.0223388671875,GOOD
2021-11-06 02:11:15.056133,-1.91845703125,0.0244140625,0.22802734375,1.4801025390625,0.99945068359375,1.0223388671875,GOOD
2021-11-06 02:11:15.416069,-1.92919921875,0.03857421875,0.240234375,1.52587890625,1.15203857421875,0.213623046875,GOOD
2021-11-06 02:11:15.776166,-1.92919921875,0.03857421875,0.240234375,1.52587890625,1.15203857421875,0.213623046875,GOOD
2021-11-06 02:11:16.181059,-1.92919921875,0.03857421875,0.240234375,1.52587890625,1.15203857421875,0.213623046875,GOOD
2021-11-06 02:11:16.541062,-1.92626953125,0.044921875,0.25634765625,1.91497802734375,-0.16021728515625,0.8087158203125,GOOD
2021-11-06 02:11:16.901077,-1.92626953125,0.044921875,0.25634765625,1.91497802734375,-0.16021728515625,0.8087158203125,GOOD
2021-11-06 02:11:17.261033,-1.92236328125,0.0380859375,0.32275390625,-1.10626220703125,-1.2054443359375,0.1373291015625,GOOD
2021-11-06 02:11:17.621061,-1.92236328125,0.0380859375,0.32275390625,-1.10626220703125,-1.2054443359375,0.1373291015625,GOOD
2021-11-06 02:11:17.981018,-1.92236328125,0.0380859375,0.32275390625,-1.10626220703125,-1.2054443359375,0.1373291015625,GOOD
2021-11-06 02:11:18.341009,-1.8857421875,0.0244140625,0.34521484375,2.4871826171875,0.41961669921875,1.3885498046875,GOOD
2021-11-06 02:11:18.701025,-1.8857421875,0.0244140625,0.34521484375,2.4871826171875,0.41961669921875,1.3885498046875,GOOD
2021-11-06 02:11:19.060944,-1.8857421875,0.0244140625,0.34521484375,2.4871826171875,0.41961669921875,1.3885498046875,GOOD
2021-11-06 02:11:19.420941,-1.919921875,0.0380859375,0.3486328125,0.90789794921875,0.885009765625,0.79345703125,GOOD
2021-11-06 02:11:19.780944,-1.919921875,0.0380859375,0.3486328125,0.90789794921875,0.885009765625,0.79345703125,GOOD
2021-11-06 02:11:20.140983,-1.919921875,0.0380859375,0.3486328125,0.90789794921875,0.885009765625,0.79345703125,GOOD
2021-11-06 02:11:20.500942,-1.91455078125,0.0439453125,0.34765625,1.12152099609375,1.4495849609375,0.02288818359375,GOOD
2021-11-06 02:11:20.860967,-1.91455078125,0.0439453125,0.34765625,1.12152099609375,1.4495849609375,0.02288818359375,GOOD
2021-11-06 02:11:21.220991,-1.91455078125,0.0439453125,0.34765625,0.54168701171875,1.28936767578125,0.1373291015625,GOOD
2021-11-06 02:11:21.580964,-1.9169921875,0.0556640625,0.3232421875,0.54168701171875,1.28936767578125,0.1373291015625,GOOD
2021-11-06 02:11:21.940914,-1.9169921875,0.0556640625,0.3232421875,0.54168701171875,1.28936767578125,0.1373291015625,GOOD
2021-11-06 02:11:22.345895,-1.91357421875,0.03857421875,0.35107421875,1.59454345703125,0.45013427734375,0.90789794921875,GOOD
2021-11-06 02:11:22.705832,-1.91357421875,0.03857421875,0.35107421875,1.59454345703125,0.45013427734375,0.90789794921875,GOOD
2021-11-06 02:11:23.065854,-1.91357421875,0.03857421875,0.35107421875,1.59454345703125,0.45013427734375,0.90789794921875,GOOD
2021-11-06 02:11:23.425886,-1.9150390625,0.04638671875,0.35888671875,1.3275146484375,0.274658203125,0.6866455078125,GOOD
2021-11-06 02:11:23.785844,-1.9150390625,0.04638671875,0.35888671875,1.3275146484375,0.274658203125,0.6866455078125,GOOD
2021-11-06 02:11:24.145828,-1.9150390625,0.04638671875,0.35888671875,1.3275146484375,0.274658203125,0.6866455078125,GOOD
2021-11-06 02:11:24.505784,-1.91357421875,0.0537109375,0.33544921875,-0.213623046875,0.18310546875,0.1068115234375,GOOD
2021-11-06 02:11:24.865797,-1.91357421875,0.0537109375,0.33544921875,-0.213623046875,0.18310546875,0.1068115234375,GOOD
2021-11-06 02:11:25.225776,-1.91357421875,0.0537109375,0.33544921875,-0.00762939453125,-0.38909912109375,0.335693359375,GOOD
2021-11-06 02:11:25.585842,-1.9052734375,0.05322265625,0.34033203125,-0.00762939453125,-0.38909912109375,0.335693359375,GOOD
2021-11-06 02:11:25.991354,-1.9052734375,0.05322265625,0.34033203125,-0.00762939453125,-0.38909912109375,0.335693359375,GOOD
2021-11-06 02:11:26.350781,-1.90869140625,0.04736328125,0.328125,1.617431640625,1.25885009765625,0.518798828125,GOOD
2021-11-06 02:11:26.710776,-1.90869140625,0.04736328125,0.328125,1.617431640625,1.25885009765625,0.518798828125,GOOD
2021-11-06 02:11:27.115704,-1.90869140625,0.04736328125,0.328125,1.617431640625,1.25885009765625,0.518798828125,GOOD
2021-11-06 02:11:27.475790,-1.921875,0.0517578125,0.33935546875,-0.17547607421875,0.55694580078125,0.25177001953125,GOOD
2021-11-06 02:11:27.836221,-1.921875,0.0517578125,0.33935546875,-0.17547607421875,0.55694580078125,0.25177001953125,GOOD
2021-11-06 02:11:28.195789,-1.921875,0.0517578125,0.33935546875,1.3275146484375,1.53350830078125,0.16021728515625,GOOD
2021-11-06 02:11:28.600692,-1.916015625,0.04931640625,0.3388671875,1.3275146484375,1.53350830078125,0.16021728515625,GOOD
2021-11-06 02:11:28.960686,-1.916015625,0.04931640625,0.3388671875,1.3275146484375,1.53350830078125,0.16021728515625,GOOD
2021-11-06 02:11:29.320638,-1.92041015625,0.04833984375,0.34130859375,0.762939453125,0.37384033203125,0.518798828125,GOOD
2021-11-06 02:11:29.680690,-1.92041015625,0.04833984375,0.34130859375,0.762939453125,0.37384033203125,0.518798828125,GOOD
2021-11-06 02:11:30.040610,-1.92041015625,0.04833984375,0.34130859375,0.762939453125,0.37384033203125,0.518798828125,GOOD
2021-11-06 02:11:30.400607,-1.912109375,0.046875,0.33740234375,1.50299072265625,0.6561279296875,0.579833984375,GOOD
2021-11-06 02:11:30.760664,-1.912109375,0.046875,0.33740234375,1.50299072265625,0.6561279296875,0.579833984375,GOOD
2021-11-06 02:11:31.120569,-1.912109375,0.046875,0.33740234375,1.50299072265625,0.6561279296875,0.579833984375,GOOD
2021-11-06 02:11:31.480718,-1.908203125,0.05126953125,0.326171875,1.5106201171875,1.30462646484375,0.6866455078125,GOOD
2021-11-06 02:11:31.840668,-1.908203125,0.05126953125,0.326171875,1.5106201171875,1.30462646484375,0.6866455078125,GOOD
2021-11-06 02:11:32.200600,-1.908203125,0.05126953125,0.326171875,1.44195556640625,1.129150390625,0.518798828125,GOOD
2021-11-06 02:11:32.560684,-1.91259765625,0.04052734375,0.3251953125,1.44195556640625,1.129150390625,0.518798828125,GOOD
2021-11-06 02:11:32.965583,-1.91259765625,0.04052734375,0.3251953125,1.44195556640625,1.129150390625,0.518798828125,GOOD
2021-11-06 02:11:33.325568,-1.90087890625,0.02294921875,0.31103515625,5.4779052734375,-3.41033935546875,0.54931640625,GOOD
2021-11-06 02:11:33.685572,-1.90087890625,0.02294921875,0.31103515625,5.4779052734375,-3.41033935546875,0.54931640625,GOOD
2021-11-06 02:11:34.045522,-1.90087890625,0.02294921875,0.31103515625,5.4779052734375,-3.41033935546875,0.54931640625,GOOD
2021-11-06 02:11:34.405536,-1.912109375,0.0400390625,0.34912109375,1.80816650390625,1.70135498046875,0.49591064453125,GOOD
2021-11-06 02:11:34.765516,-1.912109375,0.0400390625,0.34912109375,1.80816650390625,1.70135498046875,0.49591064453125,GOOD
2021-11-06 02:11:35.125497,-1.912109375,0.0400390625,0.34912109375,1.80816650390625,1.70135498046875,0.49591064453125,GOOD
2021-11-06 02:11:35.485498,-1.92041015625,0.0478515625,0.33984375,1.1749267578125,1.09100341796875,0.274658203125,GOOD
2021-11-06 02:11:35.845483,-1.92041015625,0.0478515625,0.33984375,1.1749267578125,1.09100341796875,0.274658203125,GOOD
2021-11-06 02:11:36.250511,-1.92041015625,0.0478515625,0.33984375,0.0152587890625,1.25885009765625,0.91552734375,GOOD
2021-11-06 02:11:36.610523,-1.90869140625,0.0419921875,0.32470703125,0.0152587890625,1.25885009765625,0.91552734375,GOOD
2021-11-06 02:11:37.015438,-1.90869140625,0.0419921875,0.32470703125,0.0152587890625,1.25885009765625,0.91552734375,GOOD
2021-11-06 02:11:37.375453,-1.90869140625,0.0419921875,0.3193359375,0.90789794921875,0.54931640625,0.83160400390625,GOOD
2021-11-06 02:11:37.735413,-1.90869140625,0.0419921875,0.3193359375,0.90789794921875,0.54931640625,0.83160400390625,GOOD
2021-11-06 02:11:38.095515,-1.90869140625,0.0419921875,0.3193359375,0.90789794921875,0.54931640625,0.83160400390625,GOOD
2021-11-06 02:11:38.455424,-1.91845703125,0.04443359375,0.32470703125,0.30517578125,0.946044921875,0.3662109375,GOOD
2021-11-06 02:11:38.815505,-1.91845703125,0.04443359375,0.32470703125,0.30517578125,0.946044921875,0.3662109375,GOOD
2021-11-06 02:11:39.175442,-1.91845703125,0.04443359375,0.32470703125,1.220703125,1.15966796875,0.67901611328125,GOOD
2021-11-06 02:11:39.535422,-1.91259765625,0.044921875,0.32421875,1.220703125,1.15966796875,0.67901611328125,GOOD
2021-11-06 02:11:39.940409,-1.91259765625,0.044921875,0.32421875,1.220703125,1.15966796875,0.67901611328125,GOOD
2021-11-06 02:11:40.345434,-1.91015625,0.03564453125,0.31787109375,1.0833740234375,0.51116943359375,0.732421875,GOOD
2021-11-06 02:11:40.705321,-1.91015625,0.03564453125,0.31787109375,1.0833740234375,0.51116943359375,0.732421875,GOOD
2021-11-06 02:11:41.155347,-1.91015625,0.03564453125,0.31787109375,1.0833740234375,0.51116943359375,0.732421875,GOOD
2021-11-06 02:11:41.515306,-1.91845703125,0.048828125,0.31982421875,0.7171630859375,0.86212158203125,0.5340576171875,GOOD
2021-11-06 02:11:41.875336,-1.91845703125,0.048828125,0.31982421875,0.7171630859375,0.86212158203125,0.5340576171875,GOOD
2021-11-06 02:11:42.235341,-1.91845703125,0.048828125,0.31982421875,0.58746337890625,1.0223388671875,0.34332275390625,GOOD
2021-11-06 02:11:42.595261,-1.91845703125,0.04345703125,0.32080078125,0.58746337890625,1.0223388671875,0.34332275390625,GOOD
2021-11-06 02:11:43.000329,-1.91845703125,0.04345703125,0.32080078125,0.58746337890625,1.0223388671875,0.34332275390625,GOOD
2021-11-06 02:11:43.360347,-1.9365234375,0.0439453125,0.31201171875,1.71661376953125,0.5645751953125,0.78582763671875,GOOD
2021-11-06 02:11:43.720303,-1.9365234375,0.0439453125,0.31201171875,1.71661376953125,0.5645751953125,0.78582763671875,GOOD
2021-11-06 02:11:44.080346,-1.9365234375,0.0439453125,0.31201171875,1.71661376953125,0.5645751953125,0.78582763671875,GOOD
2021-11-06 02:11:44.440246,-1.91650390625,0.03125,0.3076171875,1.39617919921875,0.72479248046875,0.58746337890625,GOOD
2021-11-06 02:11:44.800238,-1.91650390625,0.03125,0.3076171875,1.39617919921875,0.72479248046875,0.58746337890625,GOOD
2021-11-06 02:11:45.250247,-1.91650390625,0.03125,0.3076171875,2.7313232421875,0.9613037109375,0.52642822265625,GOOD
2021-11-06 02:11:45.610291,-1.90771484375,0.025390625,0.29296875,2.7313232421875,0.9613037109375,0.52642822265625,GOOD
2021-11-06 02:11:45.970248,-1.90771484375,0.025390625,0.29296875,2.7313232421875,0.9613037109375,0.52642822265625,GOOD
2021-11-06 02:11:46.330214,-1.91552734375,0.02685546875,0.314453125,-1.99127197265625,0.03814697265625,-0.1983642578125,GOOD
2021-11-06 02:11:46.690196,-1.91552734375,0.02685546875,0.314453125,-1.99127197265625,0.03814697265625,-0.1983642578125,GOOD
2021-11-06 02:11:47.050153,-1.91552734375,0.02685546875,0.314453125,-1.99127197265625,0.03814697265625,-0.1983642578125,GOOD
2021-11-06 02:11:47.410136,-1.92431640625,0.021484375,0.3232421875,1.06048583984375,1.53350830078125,0.5950927734375,GOOD
2021-11-06 02:11:47.770176,-1.92431640625,0.021484375,0.3232421875,1.06048583984375,1.53350830078125,0.5950927734375,GOOD
2021-11-06 02:11:48.130224,-1.92431640625,0.021484375,0.3232421875,1.06048583984375,1.53350830078125,0.5950927734375,GOOD
2021-11-06 02:11:48.490117,-1.912109375,0.033203125,0.31396484375,2.14385986328125,0.30517578125,0.274658203125,GOOD
2021-11-06 02:11:48.850165,-1.912109375,0.033203125,0.31396484375,2.14385986328125,0.30517578125,0.274658203125,GOOD
2021-11-06 02:11:49.255124,-1.912109375,0.033203125,0.31396484375,-0.45013427734375,-0.0152587890625,-0.84686279296875,GOOD
2021-11-06 02:11:49.615090,-1.9072265625,0.0341796875,0.31640625,-0.45013427734375,-0.0152587890625,-0.84686279296875,GOOD
2021-11-06 02:11:49.975671,-1.9072265625,0.0341796875,0.31640625,-0.45013427734375,-0.0152587890625,-0.84686279296875,GOOD
2021-11-06 02:11:50.335036,-1.919921875,0.06201171875,0.35400390625,1.51824951171875,-2.14385986328125,-0.2288818359375,GOOD
2021-11-06 02:11:50.695120,-1.919921875,0.06201171875,0.35400390625,1.51824951171875,-2.14385986328125,-0.2288818359375,GOOD
2021-11-06 02:11:51.055092,-1.919921875,0.06201171875,0.35400390625,1.51824951171875,-2.14385986328125,-0.2288818359375,GOOD
2021-11-06 02:11:51.460008,-1.88720703125,0.05029296875,0.35205078125,1.38092041015625,2.78472900390625,0.14495849609375,GOOD
2021-11-06 02:11:51.820103,-1.88720703125,0.05029296875,0.35205078125,1.38092041015625,2.78472900390625,0.14495849609375,GOOD
2021-11-06 02:11:52.180128,-1.88720703125,0.05029296875,0.35205078125,1.800537109375,2.84576416015625,0.9002685546875,GOOD
2021-11-06 02:11:52.540072,-1.94482421875,0.03271484375,0.2841796875,1.800537109375,2.84576416015625,0.9002685546875,GOOD
2021-11-06 02:11:52.989986,-1.94482421875,0.03271484375,0.2841796875,1.800537109375,2.84576416015625,0.9002685546875,GOOD
2021-11-06 02:11:53.350081,-1.93310546875,0.04248046875,0.3056640625,2.12860107421875,0.457763671875,0.6103515625,GOOD
2021-11-06 02:11:53.755070,-1.93310546875,0.04248046875,0.3056640625,2.12860107421875,0.457763671875,0.6103515625,GOOD
2021-11-06 02:11:54.160061,-1.93310546875,0.04248046875,0.3056640625,2.12860107421875,0.457763671875,0.6103515625,GOOD
2021-11-06 02:11:54.520061,-1.90380859375,0.02294921875,0.26513671875,1.01470947265625,1.9683837890625,1.007080078125,GOOD
2021-11-06 02:11:54.880080,-1.90380859375,0.02294921875,0.26513671875,1.01470947265625,1.9683837890625,1.007080078125,GOOD
2021-11-06 02:11:55.240027,-1.90380859375,0.02294921875,0.26513671875,1.2359619140625,0.701904296875,0.05340576171875,GOOD
2021-11-06 02:11:55.599937,-1.92431640625,0.0263671875,0.24853515625,1.2359619140625,0.701904296875,0.05340576171875,GOOD
2021-11-06 02:11:55.959996,-1.92431640625,0.0263671875,0.24853515625,1.2359619140625,0.701904296875,0.05340576171875,GOOD
2021-11-06 02:11:56.320024,-1.9169921875,0.0439453125,0.26171875,1.1444091796875,0.45013427734375,-0.03814697265625,GOOD
2021-11-06 02:11:56.725068,-1.9169921875,0.0439453125,0.26171875,1.1444091796875,0.45013427734375,-0.03814697265625,GOOD
2021-11-06 02:11:57.084976,-1.9169921875,0.0439453125,0.26171875,1.1444091796875,0.45013427734375,-0.03814697265625,GOOD
2021-11-06 02:11:57.444957,-1.9287109375,0.03515625,0.25927734375,1.15203857421875,0.4730224609375,1.007080078125,GOOD
2021-11-06 02:11:57.804984,-1.9287109375,0.03515625,0.25927734375,1.15203857421875,0.4730224609375,1.007080078125,GOOD
2021-11-06 02:11:58.209952,-1.9287109375,0.03515625,0.25927734375,-0.55694580078125,0.22125244140625,0.49591064453125,GOOD
2021-11-06 02:11:58.569960,-1.9267578125,0.0361328125,0.27001953125,-0.55694580078125,0.22125244140625,0.49591064453125,GOOD
2021-11-06 02:11:58.929910,-1.9267578125,0.0361328125,0.27001953125,-0.55694580078125,0.22125244140625,0.49591064453125,GOOD
2021-11-06 02:11:59.289839,-1.91552734375,0.03271484375,0.29052734375,-0.11444091796875,0.19073486328125,0.63323974609375,GOOD
2021-11-06 02:11:59.694921,-1.91552734375,0.03271484375,0.29052734375,-0.11444091796875,0.19073486328125,0.63323974609375,GOOD
2021-11-06 02:12:00.054803,-1.91552734375,0.03271484375,0.29052734375,-0.11444091796875,0.19073486328125,0.63323974609375,GOOD
2021-11-06 02:12:00.414884,-1.916015625,-0.0029296875,0.26708984375,2.44140625,1.07574462890625,0.52642822265625,GOOD
2021-11-06 02:12:00.774942,-1.916015625,-0.0029296875,0.26708984375,2.44140625,1.07574462890625,0.52642822265625,GOOD
2021-11-06 02:12:01.134902,-1.916015625,-0.0029296875,0.26708984375,2.44140625,1.07574462890625,0.52642822265625,GOOD
2021-11-06 02:12:01.494855,-1.9248046875,0.00732421875,0.2919921875,2.00653076171875,0.2288818359375,1.0833740234375,GOOD
2021-11-06 02:12:01.854780,-1.9248046875,0.00732421875,0.2919921875,2.00653076171875,0.2288818359375,1.0833740234375,GOOD
2021-11-06 02:12:02.259830,-1.9248046875,0.00732421875,0.2919921875,2.655029296875,-0.1068115234375,0.77056884765625,GOOD
2021-11-06 02:12:02.619771,-1.93798828125,0.0283203125,0.2646484375,2.655029296875,-0.1068115234375,0.77056884765625,GOOD
2021-11-06 02:12:02.979851,-1.93798828125,0.0283203125,0.2646484375,2.655029296875,-0.1068115234375,0.77056884765625,GOOD
2021-11-06 02:12:03.339768,-1.93212890625,0.0322265625,0.25634765625,0.90789794921875,-0.274658203125,0.87738037109375,GOOD
2021-11-06 02:12:03.699791,-1.93212890625,0.0322265625,0.25634765625,0.90789794921875,-0.274658203125,0.87738037109375,GOOD
2021-11-06 02:12:04.059807,-1.93212890625,0.0322265625,0.25634765625,0.90789794921875,-0.274658203125,0.87738037109375,GOOD
2021-11-06 02:12:04.464724,-1.93115234375,0.02099609375,0.27734375,1.57928466796875,-0.02288818359375,0.35858154296875,GOOD
2021-11-06 02:12:04.824746,-1.93115234375,0.02099609375,0.27734375,1.57928466796875,-0.02288818359375,0.35858154296875,GOOD
2021-11-06 02:12:05.184626,-1.93115234375,0.02099609375,0.27734375,2.105712890625,0.030517578125,0.48065185546875,GOOD
2021-11-06 02:12:05.589823,-1.931640625,0.04541015625,0.26611328125,2.105712890625,0.030517578125,0.48065185546875,GOOD
2021-11-06 02:12:06.039683,-1.931640625,0.04541015625,0.26611328125,2.105712890625,0.030517578125,0.48065185546875,GOOD
2021-11-06 02:12:06.399669,-1.91845703125,0.02880859375,0.2587890625,5.1116943359375,0.79345703125,0.84686279296875,GOOD
2021-11-06 02:12:06.759669,-1.91845703125,0.02880859375,0.2587890625,5.1116943359375,0.79345703125,0.84686279296875,GOOD
2021-11-06 02:12:07.119749,-1.91845703125,0.02880859375,0.2587890625,5.1116943359375,0.79345703125,0.84686279296875,GOOD
2021-11-06 02:12:07.479695,-1.92138671875,0.0498046875,0.2509765625,0.28228759765625,-1.65557861328125,1.64794921875,GOOD
2021-11-06 02:12:07.839698,-1.92138671875,0.0498046875,0.2509765625,0.28228759765625,-1.65557861328125,1.64794921875,GOOD
2021-11-06 02:12:08.199676,-1.92138671875,0.0498046875,0.2509765625,1.0528564453125,0.54931640625,1.4495849609375,GOOD
2021-11-06 02:12:08.559558,-1.92236328125,0.04296875,0.25439453125,1.0528564453125,0.54931640625,1.4495849609375,GOOD
2021-11-06 02:12:08.919581,-1.92236328125,0.04296875,0.25439453125,1.0528564453125,0.54931640625,1.4495849609375,GOOD
2021-11-06 02:12:09.279574,-1.92822265625,0.0556640625,0.25634765625,0.99945068359375,0.67901611328125,0.49591064453125,GOOD
2021-11-06 02:12:09.640084,-1.92822265625,0.0556640625,0.25634765625,0.99945068359375,0.67901611328125,0.49591064453125,GOOD
2021-11-06 02:12:10.134633,-1.92822265625,0.0556640625,0.25634765625,0.99945068359375,0.67901611328125,0.49591064453125,GOOD
2021-11-06 02:12:10.495037,-1.9228515625,0.05517578125,0.24951171875,1.5411376953125,0.45013427734375,0.7476806640625,GOOD
2021-11-06 02:12:10.854521,-1.9228515625,0.05517578125,0.24951171875,1.5411376953125,0.45013427734375,0.7476806640625,GOOD
2021-11-06 02:12:11.214535,-1.9228515625,0.05517578125,0.24951171875,1.35040283203125,0.518798828125,0.0152587890625,GOOD
2021-11-06 02:12:11.574525,-1.92529296875,0.068359375,0.2724609375,1.35040283203125,0.518798828125,0.0152587890625,GOOD
2021-11-06 02:12:11.934597,-1.92529296875,0.068359375,0.2724609375,1.35040283203125,0.518798828125,0.0152587890625,GOOD
2021-11-06 02:12:12.339504,-1.9248046875,0.05615234375,0.25634765625,1.60980224609375,1.31988525390625,0.7476806640625,GOOD
2021-11-06 02:12:12.699434,-1.9248046875,0.05615234375,0.25634765625,1.60980224609375,1.31988525390625,0.7476806640625,GOOD
2021-11-06 02:12:13.059527,-1.9248046875,0.05615234375,0.25634765625,1.60980224609375,1.31988525390625,0.7476806640625,GOOD
2021-11-06 02:12:13.419454,-1.93310546875,0.05810546875,0.2578125,0.95367431640625,0.1678466796875,0.31280517578125,GOOD
2021-11-06 02:12:13.779720,-1.93310546875,0.05810546875,0.2578125,0.95367431640625,0.1678466796875,0.31280517578125,GOOD
2021-11-06 02:12:14.184451,-1.93310546875,0.05810546875,0.2578125,4.3487548828125,-1.40380859375,1.45721435546875,GOOD
2021-11-06 02:12:14.544475,-1.9111328125,0.05322265625,0.30029296875,4.3487548828125,-1.40380859375,1.45721435546875,GOOD
2021-11-06 02:12:14.904918,-1.9111328125,0.05322265625,0.30029296875,4.3487548828125,-1.40380859375,1.45721435546875,GOOD
2021-11-06 02:12:15.264434,-1.919921875,0.06103515625,0.30615234375,0.99945068359375,0.38909912109375,0.00762939453125,GOOD
2021-11-06 02:12:15.624425,-1.919921875,0.06103515625,0.30615234375,0.99945068359375,0.38909912109375,0.00762939453125,GOOD
2021-11-06 02:12:15.984386,-1.919921875,0.06103515625,0.30615234375,0.99945068359375,0.38909912109375,0.00762939453125,GOOD
2021-11-06 02:12:16.389371,-1.91845703125,0.048828125,0.28662109375,0.8087158203125,1.556396484375,0.40435791015625,GOOD
2021-11-06 02:12:16.749393,-1.91845703125,0.048828125,0.28662109375,0.8087158203125,1.556396484375,0.40435791015625,GOOD
2021-11-06 02:12:17.154409,-1.91845703125,0.048828125,0.28662109375,0.8087158203125,1.556396484375,0.40435791015625,GOOD
2021-11-06 02:12:17.514415,-1.91796875,0.0546875,0.29052734375,0.7476806640625,0.885009765625,0.37384033203125,GOOD
2021-11-06 02:12:17.919337,-1.91796875,0.0546875,0.29052734375,0.7476806640625,0.885009765625,0.37384033203125,GOOD
2021-11-06 02:12:18.279346,-1.9228515625,0.05322265625,0.28662109375,1.28936767578125,0.91552734375,0.9002685546875,GOOD
2021-11-06 02:12:18.639281,-1.9228515625,0.05322265625,0.28662109375,1.28936767578125,0.91552734375,0.9002685546875,GOOD
2021-11-06 02:12:18.999335,-1.9228515625,0.05322265625,0.28662109375,1.28936767578125,0.91552734375,0.9002685546875,GOOD
2021-11-06 02:12:19.359305,-1.91748046875,0.04931640625,0.2587890625,0.67901611328125,1.24359130859375,0.5645751953125,GOOD
2021-11-06 02:12:19.719316,-1.91748046875,0.04931640625,0.2587890625,0.67901611328125,1.24359130859375,0.5645751953125,GOOD
2021-11-06 02:12:20.079347,-1.91748046875,0.04931640625,0.2587890625,0.67901611328125,1.24359130859375,0.5645751953125,GOOD
2021-11-06 02:12:20.439258,-1.93408203125,0.04296875,-0.03173828125,7.38525390625,-13.14544677734375,1.220703125,GOOD
2021-11-06 02:12:20.799334,-1.93408203125,0.04296875,-0.03173828125,7.38525390625,-13.14544677734375,1.220703125,GOOD
2021-11-06 02:12:21.204276,-1.93408203125,0.04296875,-0.03173828125,7.38525390625,-13.14544677734375,1.220703125,BAD
2021-11-06 02:12:21.564249,-1.92236328125,0.03271484375,0.19287109375,4.23431396484375,1.2359619140625,1.54876708984375,BAD
2021-11-06 02:12:21.924297,-1.92236328125,0.03271484375,0.19287109375,4.23431396484375,1.2359619140625,1.54876708984375,BAD
2021-11-06 02:12:22.284271,-1.91796875,0.0283203125,0.30322265625,1.25885009765625,-0.091552734375,-0.34332275390625,BAD
2021-11-06 02:12:22.644251,-1.91796875,0.0283203125,0.30322265625,1.25885009765625,-0.091552734375,-0.34332275390625,BAD
2021-11-06 02:12:23.004331,-1.91796875,0.0283203125,0.30322265625,1.25885009765625,-0.091552734375,-0.34332275390625,BAD
2021-11-06 02:12:23.364355,-1.9091796875,0.04296875,0.31982421875,0.84686279296875,-0.26702880859375,0.48065185546875,BAD
2021-11-06 02:12:23.724228,-1.9091796875,0.04296875,0.31982421875,0.84686279296875,-0.26702880859375,0.48065185546875,BAD
2021-11-06 02:12:24.084198,-1.9091796875,0.04296875,0.31982421875,0.84686279296875,-0.26702880859375,0.48065185546875,BAD
2021-11-06 02:12:24.444201,-1.912109375,0.04248046875,0.328125,1.74713134765625,0.8392333984375,0.54931640625,BAD
2021-11-06 02:12:24.804178,-1.912109375,0.04248046875,0.328125,1.74713134765625,0.8392333984375,0.54931640625,BAD
2021-11-06 02:12:25.209155,-1.912109375,0.04248046875,0.328125,0.7781982421875,-2.3040771484375,0.762939453125,BAD
2021-11-06 02:12:25.569200,-1.89599609375,0.03759765625,0.3671875,0.7781982421875,-2.3040771484375,0.762939453125,BAD
2021-11-06 02:12:25.974175,-1.89599609375,0.03759765625,0.3671875,0.7781982421875,-2.3040771484375,0.762939453125,BAD
2021-11-06 02:12:26.334135,-1.8994140625,0.0205078125,0.40576171875,0.885009765625,-0.55694580078125,0.823974609375,BAD
2021-11-06 02:12:26.694108,-1.8994140625,0.0205078125,0.40576171875,0.885009765625,-0.55694580078125,0.823974609375,BAD
2021-11-06 02:12:27.054127,-1.8994140625,0.0205078125,0.40576171875,0.885009765625,-0.55694580078125,0.823974609375,BAD
2021-11-06 02:12:27.414121,-1.89794921875,0.03515625,0.3955078125,1.3275146484375,0.57220458984375,0.40435791015625,BAD
2021-11-06 02:12:27.774112,-1.89794921875,0.03515625,0.3955078125,1.3275146484375,0.57220458984375,0.40435791015625,BAD
2021-11-06 02:12:28.134108,-1.89794921875,0.03515625,0.3955078125,1.3275146484375,0.57220458984375,0.40435791015625,BAD
2021-11-06 02:12:28.494109,-1.9052734375,0.0302734375,0.39306640625,1.21307373046875,1.0986328125,0.8087158203125,BAD
2021-11-06 02:12:28.854113,-1.9052734375,0.0302734375,0.39306640625,1.21307373046875,1.0986328125,0.8087158203125,BAD
2021-11-06 02:12:29.259079,-1.90185546875,0.029296875,0.3779296875,1.19781494140625,0.7476806640625,0.6256103515625,BAD
2021-11-06 02:12:29.619069,-1.90185546875,0.029296875,0.3779296875,1.19781494140625,0.7476806640625,0.6256103515625,BAD
2021-11-06 02:12:29.979079,-1.90185546875,0.029296875,0.3779296875,1.19781494140625,0.7476806640625,0.6256103515625,BAD
2021-11-06 02:12:30.339011,-1.89111328125,0.0380859375,0.4443359375,2.79998779296875,-5.02777099609375,0.5035400390625,BAD
2021-11-06 02:12:30.699482,-1.89111328125,0.0380859375,0.4443359375,2.79998779296875,-5.02777099609375,0.5035400390625,BAD
2021-11-06 02:12:31.059056,-1.89111328125,0.0380859375,0.4443359375,2.79998779296875,-5.02777099609375,0.5035400390625,BAD
2021-11-06 02:12:31.419008,-1.88037109375,0.04345703125,0.50048828125,-0.31280517578125,0.08392333984375,0.732421875,BAD
2021-11-06 02:12:31.778998,-1.88037109375,0.04345703125,0.50048828125,-0.31280517578125,0.08392333984375,0.732421875,BAD
2021-11-06 02:12:32.138998,-1.88037109375,0.04345703125,0.50048828125,-0.31280517578125,0.08392333984375,0.732421875,BAD
2021-11-06 02:12:32.498905,-1.869140625,0.041015625,0.5087890625,1.3580322265625,0.16021728515625,0.80108642578125,BAD
2021-11-06 02:12:32.858957,-1.869140625,0.041015625,0.5087890625,1.3580322265625,0.16021728515625,0.80108642578125,BAD
2021-11-06 02:12:33.218963,-1.869140625,0.041015625,0.5087890625,1.68609619140625,0.5340576171875,0.79345703125,BAD
2021-11-06 02:12:33.578962,-1.88525390625,0.0439453125,0.4931640625,1.68609619140625,0.5340576171875,0.79345703125,BAD
2021-11-06 02:12:33.938998,-1.88525390625,0.0439453125,0.4931640625,1.68609619140625,0.5340576171875,0.79345703125,BAD
2021-11-06 02:12:34.343881,-1.87744140625,0.02978515625,0.50830078125,1.13677978515625,0.61798095703125,0.64849853515625,BAD
2021-11-06 02:12:34.703957,-1.87744140625,0.02978515625,0.50830078125,1.13677978515625,0.61798095703125,0.64849853515625,BAD
2021-11-06 02:12:35.108951,-1.87744140625,0.02978515625,0.50830078125,1.13677978515625,0.61798095703125,0.64849853515625,BAD
2021-11-06 02:12:35.468825,-1.8564453125,0.033203125,0.50537109375,0.77056884765625,1.0528564453125,0.75531005859375,BAD
2021-11-06 02:12:35.873937,-1.8564453125,0.033203125,0.50537109375,0.77056884765625,1.0528564453125,0.75531005859375,BAD
2021-11-06 02:12:36.233876,-1.8564453125,0.033203125,0.50537109375,1.251220703125,1.15203857421875,0.89263916015625,BAD
2021-11-06 02:12:36.593936,-1.8740234375,0.03466796875,0.5205078125,1.251220703125,1.15203857421875,0.89263916015625,BAD
2021-11-06 02:12:36.953848,-1.8740234375,0.03466796875,0.5205078125,1.251220703125,1.15203857421875,0.89263916015625,BAD
2021-11-06 02:12:37.313831,-1.869140625,0.03076171875,0.5029296875,0.9002685546875,-0.091552734375,0.396728515625,BAD
2021-11-06 02:12:37.673797,-1.869140625,0.03076171875,0.5029296875,0.9002685546875,-0.091552734375,0.396728515625,BAD
2021-11-06 02:12:38.033852,-1.869140625,0.03076171875,0.5029296875,0.9002685546875,-0.091552734375,0.396728515625,BAD
2021-11-06 02:12:38.393851,-1.85986328125,0.033203125,0.5244140625,1.0986328125,-0.0457763671875,0.3509521484375,BAD
2021-11-06 02:12:38.753849,-1.85986328125,0.033203125,0.5244140625,1.0986328125,-0.0457763671875,0.3509521484375,BAD
2021-11-06 02:12:39.113903,-1.85986328125,0.033203125,0.5244140625,1.0986328125,-0.0457763671875,0.3509521484375,BAD
2021-11-06 02:12:39.473803,-1.87109375,0.0263671875,0.52880859375,1.3275146484375,0.7781982421875,0.63323974609375,BAD
2021-11-06 02:12:39.833792,-1.87109375,0.0263671875,0.52880859375,1.3275146484375,0.7781982421875,0.63323974609375,BAD
2021-11-06 02:12:40.193814,-1.87109375,0.0263671875,0.52880859375,1.312255859375,0.7171630859375,0.6256103515625,BAD
2021-11-06 02:12:40.553742,-1.86083984375,0.02734375,0.5341796875,1.312255859375,0.7171630859375,0.6256103515625,BAD
2021-11-06 02:12:40.958721,-1.86083984375,0.02734375,0.5341796875,1.312255859375,0.7171630859375,0.6256103515625,BAD
2021-11-06 02:12:41.318744,-1.86669921875,0.03466796875,0.54736328125,1.3427734375,0.58746337890625,0.701904296875,BAD
2021-11-06 02:12:41.678762,-1.86669921875,0.03466796875,0.54736328125,1.3427734375,0.58746337890625,0.701904296875,BAD
2021-11-06 02:12:42.083751,-1.86669921875,0.03466796875,0.54736328125,1.3427734375,0.58746337890625,0.701904296875,BAD
2021-11-06 02:12:42.443746,-1.869140625,0.03466796875,0.5498046875,1.54876708984375,0.95367431640625,0.6866455078125,BAD
2021-11-06 02:12:42.803767,-1.869140625,0.03466796875,0.5498046875,1.54876708984375,0.95367431640625,0.6866455078125,BAD
2021-11-06 02:12:43.253636,-1.869140625,0.03466796875,0.5498046875,1.07574462890625,0.60272216796875,0.84686279296875,BAD
2021-11-06 02:12:43.658749,-1.8603515625,0.0390625,0.56201171875,1.07574462890625,0.60272216796875,0.84686279296875,BAD
2021-11-06 02:12:44.018649,-1.8603515625,0.0390625,0.56201171875,1.07574462890625,0.60272216796875,0.84686279296875,BAD
2021-11-06 02:12:44.378810,-1.8603515625,0.0341796875,0.56396484375,1.190185546875,1.0986328125,0.6866455078125,BAD
2021-11-06 02:12:44.783672,-1.8603515625,0.0341796875,0.56396484375,1.190185546875,1.0986328125,0.6866455078125,BAD
2021-11-06 02:12:45.143748,-1.8603515625,0.0341796875,0.56396484375,1.190185546875,1.0986328125,0.6866455078125,BAD
2021-11-06 02:12:45.548591,-1.8408203125,0.03564453125,0.5556640625,1.0833740234375,2.46429443359375,0.31280517578125,BAD
2021-11-06 02:12:45.909200,-1.8408203125,0.03564453125,0.5556640625,1.0833740234375,2.46429443359375,0.31280517578125,BAD
2021-11-06 02:12:46.268626,-1.8720703125,0.05126953125,0.54052734375,1.82342529296875,0.5340576171875,0.5645751953125,BAD
2021-11-06 02:12:46.628677,-1.8720703125,0.05126953125,0.54052734375,1.82342529296875,0.5340576171875,0.5645751953125,BAD
2021-11-06 02:12:46.988569,-1.8720703125,0.05126953125,0.54052734375,1.82342529296875,0.5340576171875,0.5645751953125,BAD
2021-11-06 02:12:47.348668,-1.86083984375,0.044921875,0.54345703125,0.87738037109375,1.0833740234375,0.23651123046875,BAD
2021-11-06 02:12:47.753562,-1.86083984375,0.044921875,0.54345703125,0.87738037109375,1.0833740234375,0.23651123046875,BAD
2021-11-06 02:12:48.113703,-1.86083984375,0.044921875,0.54345703125,0.87738037109375,1.0833740234375,0.23651123046875,BAD
2021-11-06 02:12:48.473605,-1.90234375,0.06884765625,0.53076171875,2.8076171875,-1.251220703125,-0.335693359375,BAD
2021-11-06 02:12:48.833558,-1.90234375,0.06884765625,0.53076171875,2.8076171875,-1.251220703125,-0.335693359375,BAD
2021-11-06 02:12:49.238562,-1.90234375,0.06884765625,0.53076171875,0.83160400390625,0.4730224609375,0.40435791015625,BAD
2021-11-06 02:12:49.598501,-1.853515625,0.0244140625,0.564453125,0.83160400390625,0.4730224609375,0.40435791015625,BAD
2021-11-06 02:12:50.003496,-1.853515625,0.0244140625,0.564453125,0.83160400390625,0.4730224609375,0.40435791015625,BAD
2021-11-06 02:12:50.543563,-1.865234375,0.0302734375,0.578125,2.1820068359375,-0.37384033203125,0.213623046875,BAD
2021-11-06 02:12:50.903510,-1.865234375,0.0302734375,0.578125,2.1820068359375,-0.37384033203125,0.213623046875,BAD
2021-11-06 02:12:51.263524,-1.85595703125,0.01611328125,0.5859375,1.46484375,1.1138916015625,0.80108642578125,BAD
2021-11-06 02:12:51.623556,-1.85595703125,0.01611328125,0.5859375,1.46484375,1.1138916015625,0.80108642578125,BAD
2021-11-06 02:12:51.983438,-1.85595703125,0.01611328125,0.5859375,1.46484375,1.1138916015625,0.80108642578125,BAD
2021-11-06 02:12:52.433511,-1.8564453125,0.03564453125,0.603515625,1.07574462890625,0.9002685546875,0.7781982421875,BAD
2021-11-06 02:12:52.838465,-1.8564453125,0.03564453125,0.603515625,1.07574462890625,0.9002685546875,0.7781982421875,BAD
2021-11-06 02:12:53.198441,-1.8564453125,0.03564453125,0.603515625,0.9307861328125,0.11444091796875,0.3662109375,BAD
2021-11-06 02:12:53.603412,-1.84814453125,0.02783203125,0.60693359375,0.9307861328125,0.11444091796875,0.3662109375,BAD
2021-11-06 02:12:53.963434,-1.84814453125,0.02783203125,0.60693359375,0.9307861328125,0.11444091796875,0.3662109375,BAD
2021-11-06 02:12:54.323380,-1.84814453125,0.029296875,0.603515625,0.89263916015625,0.49591064453125,0.579833984375,BAD
2021-11-06 02:12:54.683410,-1.84814453125,0.029296875,0.603515625,0.89263916015625,0.49591064453125,0.579833984375,BAD
2021-11-06 02:12:55.043396,-1.84814453125,0.029296875,0.603515625,0.89263916015625,0.49591064453125,0.579833984375,BAD
2021-11-06 02:12:55.403374,-1.83935546875,0.02099609375,0.61474609375,1.03759765625,0.885009765625,0.457763671875,BAD
2021-11-06 02:12:55.763520,-1.83935546875,0.02099609375,0.61474609375,1.03759765625,0.885009765625,0.457763671875,BAD
2021-11-06 02:12:56.123847,-1.83935546875,0.02099609375,0.61474609375,1.03759765625,0.885009765625,0.457763671875,BAD
2021-11-06 02:12:56.483394,-1.8427734375,0.0263671875,0.599609375,0.8087158203125,0.02288818359375,1.06048583984375,BAD
2021-11-06 02:12:56.843414,-1.8427734375,0.0263671875,0.599609375,0.8087158203125,0.02288818359375,1.06048583984375,BAD
2021-11-06 02:12:57.203338,-1.8427734375,0.0263671875,0.599609375,1.33514404296875,1.39617919921875,0.46539306640625,BAD
2021-11-06 02:12:57.608431,-1.8427734375,0.03369140625,0.58935546875,1.33514404296875,1.39617919921875,0.46539306640625,BAD
2021-11-06 02:12:57.968345,-1.8427734375,0.03369140625,0.58935546875,1.33514404296875,1.39617919921875,0.46539306640625,BAD
2021-11-06 02:12:58.328387,-1.8583984375,0.03125,0.59521484375,0.732421875,1.12152099609375,0.55694580078125,BAD
2021-11-06 02:12:58.688345,-1.8583984375,0.03125,0.59521484375,0.732421875,1.12152099609375,0.55694580078125,BAD
2021-11-06 02:12:59.093384,-1.8583984375,0.03125,0.59521484375,0.732421875,1.12152099609375,0.55694580078125,BAD
2021-11-06 02:12:59.453330,-1.859375,0.02490234375,0.59326171875,1.25885009765625,0.5340576171875,0.41961669921875,BAD
2021-11-06 02:12:59.813364,-1.859375,0.02490234375,0.59326171875,1.25885009765625,0.5340576171875,0.41961669921875,BAD
2021-11-06 02:13:00.173337,-1.859375,0.02490234375,0.59326171875,0.99945068359375,0.030517578125,1.16729736328125,BAD
2021-11-06 02:13:00.533379,-1.84130859375,0.02978515625,0.6181640625,0.99945068359375,0.030517578125,1.16729736328125,BAD
2021-11-06 02:13:00.893342,-1.84130859375,0.02978515625,0.6181640625,0.99945068359375,0.030517578125,1.16729736328125,BAD
2021-11-06 02:13:01.298255,-1.8310546875,0.02783203125,0.62109375,0.84686279296875,0.6256103515625,0.335693359375,BAD
2021-11-06 02:13:01.658307,-1.8310546875,0.02783203125,0.62109375,0.84686279296875,0.6256103515625,0.335693359375,BAD
2021-11-06 02:13:02.018266,-1.8310546875,0.02783203125,0.62109375,0.84686279296875,0.6256103515625,0.335693359375,BAD
2021-11-06 02:13:02.468200,-1.8466796875,0.0322265625,0.6318359375,1.0986328125,0.69427490234375,0.54168701171875,BAD
2021-11-06 02:13:02.828265,-1.8466796875,0.0322265625,0.6318359375,1.0986328125,0.69427490234375,0.54168701171875,BAD
2021-11-06 02:13:03.188188,-1.8466796875,0.0322265625,0.6318359375,1.06048583984375,0.52642822265625,0.58746337890625,BAD
2021-11-06 02:13:03.593217,-1.8427734375,0.02783203125,0.63916015625,1.06048583984375,0.52642822265625,0.58746337890625,BAD
2021-11-06 02:13:03.953226,-1.8427734375,0.02783203125,0.63916015625,1.06048583984375,0.52642822265625,0.58746337890625,BAD
2021-11-06 02:13:04.313351,-1.83837890625,0.0419921875,0.64501953125,0.8087158203125,0.4425048828125,0.31280517578125,BAD
2021-11-06 02:13:04.673128,-1.83837890625,0.0419921875,0.64501953125,0.8087158203125,0.4425048828125,0.31280517578125,BAD
2021-11-06 02:13:05.033167,-1.83837890625,0.0419921875,0.64501953125,0.8087158203125,0.4425048828125,0.31280517578125,BAD
2021-11-06 02:13:05.393228,-1.84033203125,0.025390625,0.62744140625,1.15203857421875,1.13677978515625,0.49591064453125,BAD
2021-11-06 02:13:05.753076,-1.84033203125,0.025390625,0.62744140625,1.15203857421875,1.13677978515625,0.49591064453125,BAD
2021-11-06 02:13:06.113206,-1.84033203125,0.025390625,0.62744140625,1.15203857421875,1.13677978515625,0.49591064453125,BAD
2021-11-06 02:13:06.473077,-1.8349609375,0.025390625,0.62646484375,1.251220703125,0.2899169921875,0.6561279296875,BAD
2021-11-06 02:13:06.833112,-1.8349609375,0.025390625,0.62646484375,1.251220703125,0.2899169921875,0.6561279296875,BAD
2021-11-06 02:13:07.193168,-1.8349609375,0.025390625,0.62646484375,1.01470947265625,1.39617919921875,0.5950927734375,BAD
2021-11-06 02:13:07.553243,-1.8466796875,0.03466796875,0.61962890625,1.01470947265625,1.39617919921875,0.5950927734375,BAD
2021-11-06 02:13:07.913178,-1.8466796875,0.03466796875,0.61962890625,1.01470947265625,1.39617919921875,0.5950927734375,BAD
2021-11-06 02:13:08.273139,-1.84130859375,0.03173828125,0.6318359375,1.312255859375,0.14495849609375,0.55694580078125,BAD
2021-11-06 02:13:08.633100,-1.84130859375,0.03173828125,0.6318359375,1.312255859375,0.14495849609375,0.55694580078125,BAD
2021-11-06 02:13:08.993145,-1.84130859375,0.03173828125,0.6318359375,1.312255859375,0.14495849609375,0.55694580078125,BAD
2021-11-06 02:13:09.353108,-1.8359375,0.02783203125,0.62060546875,1.007080078125,0.74005126953125,0.5035400390625,BAD
2021-11-06 02:13:09.713205,-1.8359375,0.02783203125,0.62060546875,1.007080078125,0.74005126953125,0.5035400390625,BAD
2021-11-06 02:13:10.117988,-1.8359375,0.02783203125,0.62060546875,1.007080078125,0.74005126953125,0.5035400390625,BAD
2021-11-06 02:13:10.478061,-1.845703125,0.0322265625,0.63818359375,1.36566162109375,-0.38909912109375,0.8544921875,BAD
2021-11-06 02:13:10.838094,-1.845703125,0.0322265625,0.63818359375,1.36566162109375,-0.38909912109375,0.8544921875,BAD
