time,acc_x,acc_y,acc_z,gyr_x,gyr_y,gyr_z,posture
2021-11-06 02:06:58.384268,0.0,0.0,0.0,0.0,0.0,0.0,GOOD
2021-11-06 02:06:58.744188,0.0,0.0,0.0,0.0,0.0,0.0,GOOD
2021-11-06 02:06:59.104227,-1.6201171875,0.16162109375,1.08447265625,1.42669677734375,1.19781494140625,1.02996826171875,GOOD
2021-11-06 02:06:59.464232,-1.6201171875,0.16162109375,1.08447265625,1.42669677734375,1.19781494140625,1.02996826171875,GOOD
2021-11-06 02:06:59.824166,-1.6201171875,0.16162109375,1.08447265625,1.36566162109375,1.0528564453125,0.57220458984375,GOOD
2021-11-06 02:07:00.229258,-1.611328125,0.15771484375,1.099609375,1.36566162109375,1.0528564453125,0.57220458984375,GOOD
2021-11-06 02:07:00.589118,-1.611328125,0.15771484375,1.099609375,1.36566162109375,1.0528564453125,0.57220458984375,GOOD
2021-11-06 02:07:00.949113,-1.60888671875,0.15478515625,1.091796875,1.42669677734375,0.823974609375,0.87738037109375,GOOD
2021-11-06 02:07:01.309148,-1.60888671875,0.15478515625,1.091796875,1.42669677734375,0.823974609375,0.87738037109375,GOOD
2021-11-06 02:07:01.669056,-1.60888671875,0.15478515625,1.091796875,1.42669677734375,0.823974609375,0.87738037109375,GOOD
2021-11-06 02:07:02.119044,-1.6044921875,0.15380859375,1.09228515625,1.94549560546875,0.93841552734375,1.3275146484375,GOOD
2021-11-06 02:07:02.524080,-1.6044921875,0.15380859375,1.09228515625,1.94549560546875,0.93841552734375,1.3275146484375,GOOD
2021-11-06 02:07:02.884052,-1.599609375,0.16259765625,1.11279296875,1.48773193359375,0.99945068359375,1.1749267578125,GOOD
2021-11-06 02:07:03.288921,-1.599609375,0.16259765625,1.11279296875,1.48773193359375,0.99945068359375,1.1749267578125,GOOD
2021-11-06 02:07:03.648962,-1.599609375,0.16259765625,1.11279296875,1.48773193359375,0.99945068359375,1.1749267578125,GOOD
2021-11-06 02:07:04.009009,-1.5908203125,0.15478515625,1.1162109375,1.3885498046875,0.80108642578125,1.39617919921875,GOOD
2021-11-06 02:07:04.368891,-1.5908203125,0.15478515625,1.1162109375,1.3885498046875,0.80108642578125,1.39617919921875,GOOD
2021-11-06 02:07:04.728937,-1.5908203125,0.15478515625,1.1162109375,1.3885498046875,0.80108642578125,1.39617919921875,GOOD
2021-11-06 02:07:05.088921,-1.58544921875,0.15380859375,1.1298828125,1.60980224609375,1.46484375,1.85394287109375,GOOD
2021-11-06 02:07:05.448782,-1.58544921875,0.15380859375,1.1298828125,1.60980224609375,1.46484375,1.85394287109375,GOOD
2021-11-06 02:07:05.808905,-1.58544921875,0.15380859375,1.1298828125,1.7547607421875,0.52642822265625,1.007080078125,GOOD
2021-11-06 02:07:06.213847,-1.58447265625,0.16455078125,1.12451171875,1.7547607421875,0.52642822265625,1.007080078125,GOOD
2021-11-06 02:07:06.573858,-1.58447265625,0.16455078125,1.12451171875,1.7547607421875,0.52642822265625,1.007080078125,GOOD
2021-11-06 02:07:06.933799,-1.55517578125,0.1767578125,1.1318359375,1.6326904296875,1.0833740234375,0.74005126953125,GOOD
2021-11-06 02:07:07.294260,-1.55517578125,0.1767578125,1.1318359375,1.6326904296875,1.0833740234375,0.74005126953125,GOOD
2021-11-06 02:07:07.653793,-1.55517578125,0.1767578125,1.1318359375,1.6326904296875,1.0833740234375,0.74005126953125,GOOD
2021-11-06 02:07:08.013705,-1.58154296875,0.17138671875,1.119140625,1.6326904296875,1.53350830078125,0.8392333984375,GOOD
2021-11-06 02:07:08.373764,-1.58154296875,0.17138671875,1.119140625,1.6326904296875,1.53350830078125,0.8392333984375,GOOD
2021-11-06 02:07:08.733683,-1.58154296875,0.17138671875,1.119140625,1.6326904296875,1.53350830078125,0.8392333984375,GOOD
2021-11-06 02:07:09.138628,-1.5732421875,0.1728515625,1.1337890625,1.57928466796875,2.44140625,0.55694580078125,GOOD
2021-11-06 02:07:09.498609,-1.5732421875,0.1728515625,1.1337890625,1.57928466796875,2.44140625,0.55694580078125,GOOD
2021-11-06 02:07:09.859175,-1.5732421875,0.1728515625,1.1337890625,1.27410888671875,2.38037109375,1.01470947265625,GOOD
2021-11-06 02:07:10.264176,-1.59375,0.166015625,1.10205078125,1.27410888671875,2.38037109375,1.01470947265625,GOOD
2021-11-06 02:07:10.623637,-1.59375,0.166015625,1.10205078125,1.27410888671875,2.38037109375,1.01470947265625,GOOD
2021-11-06 02:07:10.983582,-1.60791015625,0.162109375,1.11474609375,1.1444091796875,1.01470947265625,0.8544921875,GOOD
2021-11-06 02:07:11.343588,-1.60791015625,0.162109375,1.11474609375,1.1444091796875,1.01470947265625,0.8544921875,GOOD
2021-11-06 02:07:11.703472,-1.60791015625,0.162109375,1.11474609375,1.1444091796875,1.01470947265625,0.8544921875,GOOD
2021-11-06 02:07:12.108625,-1.5927734375,0.17041015625,1.107421875,1.3885498046875,0.91552734375,1.30462646484375,GOOD
2021-11-06 02:07:12.513566,-1.5927734375,0.17041015625,1.107421875,1.3885498046875,0.91552734375,1.30462646484375,GOOD
2021-11-06 02:07:12.918514,-1.5927734375,0.17041015625,1.107421875,1.3580322265625,1.434326171875,0.762939453125,GOOD
2021-11-06 02:07:13.278418,-1.583984375,0.16943359375,1.10888671875,1.3580322265625,1.434326171875,0.762939453125,GOOD
2021-11-06 02:07:13.638377,-1.583984375,0.16943359375,1.10888671875,1.3580322265625,1.434326171875,0.762939453125,GOOD
2021-11-06 02:07:13.998409,-1.60302734375,0.17431640625,1.1103515625,1.73187255859375,1.13677978515625,0.54931640625,GOOD
2021-11-06 02:07:14.358368,-1.60302734375,0.17431640625,1.1103515625,1.73187255859375,1.13677978515625,0.54931640625,GOOD
2021-11-06 02:07:14.718429,-1.60302734375,0.17431640625,1.1103515625,1.73187255859375,1.13677978515625,0.54931640625,GOOD
2021-11-06 02:07:15.078453,-1.59912109375,0.15771484375,1.11376953125,1.71661376953125,1.18255615234375,0.67138671875,GOOD
2021-11-06 02:07:15.438272,-1.59912109375,0.15771484375,1.11376953125,1.71661376953125,1.18255615234375,0.67138671875,GOOD
2021-11-06 02:07:15.798293,-1.59912109375,0.15771484375,1.11376953125,1.48773193359375,1.0223388671875,0.96893310546875,GOOD
2021-11-06 02:07:16.158255,-1.59521484375,0.16796875,1.109375,1.48773193359375,1.0223388671875,0.96893310546875,GOOD
2021-11-06 02:07:16.563865,-1.59521484375,0.16796875,1.109375,1.48773193359375,1.0223388671875,0.96893310546875,GOOD
2021-11-06 02:07:17.013259,-1.5986328125,0.16162109375,1.1181640625,2.47955322265625,0.96893310546875,1.30462646484375,GOOD
2021-11-06 02:07:17.373276,-1.5986328125,0.16162109375,1.1181640625,2.47955322265625,0.96893310546875,1.30462646484375,GOOD
2021-11-06 02:07:17.733258,-1.5986328125,0.16162109375,1.1181640625,2.47955322265625,0.96893310546875,1.30462646484375,GOOD
2021-11-06 02:07:18.138227,-1.58642578125,0.16064453125,1.10009765625,1.8157958984375,1.007080078125,1.10626220703125,GOOD
2021-11-06 02:07:18.498179,-1.58642578125,0.16064453125,1.10009765625,1.8157958984375,1.007080078125,1.10626220703125,GOOD
2021-11-06 02:07:18.858204,-1.58642578125,0.16064453125,1.10009765625,2.23541259765625,-0.2288818359375,0.54931640625,GOOD
2021-11-06 02:07:19.218119,-1.58544921875,0.158203125,1.13525390625,2.23541259765625,-0.2288818359375,0.54931640625,GOOD
2021-11-06 02:07:19.668018,-1.58544921875,0.158203125,1.13525390625,2.23541259765625,-0.2288818359375,0.54931640625,GOOD
2021-11-06 02:07:20.028065,-1.55615234375,0.150390625,1.16259765625,-0.213623046875,2.67791748046875,2.50244140625,GOOD
2021-11-06 02:07:20.433047,-1.55615234375,0.150390625,1.16259765625,-0.213623046875,2.67791748046875,2.50244140625,GOOD
2021-11-06 02:07:20.793048,-1.55615234375,0.150390625,1.16259765625,-0.213623046875,3.1585693359375,2.49481201171875,GOOD
2021-11-06 02:07:21.153033,-1.57861328125,0.1396484375,1.1376953125,-0.213623046875,3.1585693359375,2.49481201171875,GOOD
2021-11-06 02:07:21.513098,-1.57861328125,0.1396484375,1.1376953125,-0.213623046875,3.1585693359375,2.49481201171875,GOOD
2021-11-06 02:07:21.872928,-1.57861328125,0.1396484375,1.1376953125,2.1209716796875,2.25067138671875,-0.4119873046875,GOOD
2021-11-06 02:07:22.367997,-1.56396484375,0.14501953125,1.13427734375,2.1209716796875,2.25067138671875,-0.4119873046875,GOOD
2021-11-06 02:07:22.772949,-1.56396484375,0.14501953125,1.13427734375,2.1209716796875,2.25067138671875,-0.4119873046875,GOOD
2021-11-06 02:07:23.132934,-1.61572265625,0.16064453125,1.07177734375,1.91497802734375,1.3275146484375,1.4801025390625,GOOD
2021-11-06 02:07:23.537948,-1.61572265625,0.16064453125,1.07177734375,1.91497802734375,1.3275146484375,1.4801025390625,GOOD
2021-11-06 02:07:23.987810,-1.5966796875,0.158203125,1.10546875,1.9073486328125,1.19781494140625,0.0152587890625,GOOD
2021-11-06 02:07:24.347911,-1.5966796875,0.158203125,1.10546875,1.9073486328125,1.19781494140625,0.0152587890625,GOOD
2021-11-06 02:07:24.752774,-1.5966796875,0.158203125,1.10546875,1.9073486328125,1.19781494140625,0.0152587890625,GOOD
2021-11-06 02:07:25.112889,-1.5908203125,0.12255859375,1.10986328125,2.87628173828125,-0.55694580078125,-2.7923583984375,GOOD
2021-11-06 02:07:25.472893,-1.5908203125,0.12255859375,1.10986328125,2.87628173828125,-0.55694580078125,-2.7923583984375,GOOD
2021-11-06 02:07:25.877789,-1.5908203125,0.12255859375,1.10986328125,2.58636474609375,1.52587890625,0.78582763671875,GOOD
2021-11-06 02:07:26.238328,-1.58984375,0.12060546875,1.13134765625,2.58636474609375,1.52587890625,0.78582763671875,GOOD
2021-11-06 02:07:26.597763,-1.58984375,0.12060546875,1.13134765625,2.58636474609375,1.52587890625,0.78582763671875,GOOD
2021-11-06 02:07:26.957620,-1.57763671875,0.14599609375,1.1171875,0.58746337890625,1.46484375,1.27410888671875,GOOD
2021-11-06 02:07:27.317773,-1.57763671875,0.14599609375,1.1171875,0.58746337890625,1.46484375,1.27410888671875,GOOD
2021-11-06 02:07:27.677720,-1.57763671875,0.14599609375,1.1171875,0.58746337890625,1.46484375,1.27410888671875,GOOD
2021-11-06 02:07:28.082721,-1.59228515625,0.13916015625,1.13330078125,0.48065185546875,0.79345703125,0.4730224609375,GOOD
2021-11-06 02:07:28.442676,-1.59228515625,0.13916015625,1.13330078125,0.48065185546875,0.79345703125,0.4730224609375,GOOD
2021-11-06 02:07:28.802643,-1.59228515625,0.13916015625,1.13330078125,1.1444091796875,1.38092041015625,-0.0457763671875,GOOD
2021-11-06 02:07:29.162603,-1.58447265625,0.15869140625,1.1328125,1.1444091796875,1.38092041015625,-0.0457763671875,GOOD
2021-11-06 02:07:29.612630,-1.58447265625,0.15869140625,1.1328125,1.1444091796875,1.38092041015625,-0.0457763671875,GOOD
2021-11-06 02:07:29.972593,-1.57861328125,0.14453125,1.13671875,2.0904541015625,1.251220703125,1.59454345703125,GOOD
2021-11-06 02:07:30.332532,-1.57861328125,0.14453125,1.13671875,2.0904541015625,1.251220703125,1.59454345703125,GOOD
2021-11-06 02:07:30.692557,-1.57861328125,0.14453125,1.13671875,2.0904541015625,1.251220703125,1.59454345703125,GOOD
2021-11-06 02:07:31.052533,-1.58203125,0.1416015625,1.14697265625,2.25067138671875,0.579833984375,0.49591064453125,GOOD
2021-11-06 02:07:31.412520,-1.58203125,0.1416015625,1.14697265625,2.25067138671875,0.579833984375,0.49591064453125,GOOD
2021-11-06 02:07:31.772465,-1.58203125,0.1416015625,1.14697265625,2.25067138671875,0.579833984375,0.49591064453125,GOOD
2021-11-06 02:07:32.132448,-1.57470703125,0.14208984375,1.1533203125,1.77764892578125,0.1220703125,0.54931640625,GOOD
2021-11-06 02:07:32.492500,-1.57470703125,0.14208984375,1.1533203125,1.77764892578125,0.1220703125,0.54931640625,GOOD
2021-11-06 02:07:32.897407,-1.57470703125,0.14208984375,1.1533203125,1.556396484375,1.51824951171875,0.79345703125,GOOD
2021-11-06 02:07:33.302358,-1.56640625,0.14306640625,1.1611328125,1.556396484375,1.51824951171875,0.79345703125,GOOD
2021-11-06 02:07:33.662415,-1.56640625,0.14306640625,1.1611328125,1.556396484375,1.51824951171875,0.79345703125,GOOD
2021-11-06 02:07:34.022385,-1.57763671875,0.15380859375,1.14306640625,1.7242431640625,1.44195556640625,1.4801025390625,GOOD
2021-11-06 02:07:34.382364,-1.57763671875,0.15380859375,1.14306640625,1.7242431640625,1.44195556640625,1.4801025390625,GOOD
2021-11-06 02:07:34.877323,-1.57763671875,0.15380859375,1.14306640625,1.922607421875,0.8697509765625,0.6256103515625,GOOD
2021-11-06 02:07:35.327308,-1.5703125,0.140625,1.142578125,1.922607421875,0.8697509765625,0.6256103515625,GOOD
2021-11-06 02:07:35.687310,-1.5703125,0.140625,1.142578125,1.922607421875,0.8697509765625,0.6256103515625,GOOD
2021-11-06 02:07:36.047867,-1.57958984375,0.15478515625,1.1494140625,1.8463134765625,1.13677978515625,1.3885498046875,GOOD
2021-11-06 02:07:36.407207,-1.57958984375,0.15478515625,1.1494140625,1.8463134765625,1.13677978515625,1.3885498046875,GOOD
2021-11-06 02:07:36.767152,-1.57958984375,0.15478515625,1.1494140625,1.8463134765625,1.13677978515625,1.3885498046875,GOOD
2021-11-06 02:07:37.127204,-1.55224609375,0.140625,1.16845703125,1.19781494140625,1.16729736328125,1.46484375,GOOD
2021-11-06 02:07:37.487127,-1.55224609375,0.140625,1.16845703125,1.19781494140625,1.16729736328125,1.46484375,GOOD
2021-11-06 02:07:37.892213,-1.55224609375,0.140625,1.16845703125,1.312255859375,1.495361328125,1.35040283203125,GOOD
2021-11-06 02:07:38.342128,-1.56396484375,0.1640625,1.15869140625,1.312255859375,1.495361328125,1.35040283203125,GOOD
2021-11-06 02:07:38.702056,-1.56396484375,0.1640625,1.15869140625,1.312255859375,1.495361328125,1.35040283203125,GOOD
2021-11-06 02:07:39.107129,-1.55859375,0.15283203125,1.16162109375,1.9073486328125,0.946044921875,0.67901611328125,GOOD
2021-11-06 02:07:39.467106,-1.55859375,0.15283203125,1.16162109375,1.9073486328125,0.946044921875,0.67901611328125,GOOD
2021-11-06 02:07:39.827028,-1.55859375,0.15283203125,1.16162109375,1.8463134765625,1.74713134765625,0.66375732421875,GOOD
2021-11-06 02:07:40.187132,-1.56591796875,0.15234375,1.16650390625,1.8463134765625,1.74713134765625,0.66375732421875,GOOD
2021-11-06 02:07:40.592107,-1.56591796875,0.15234375,1.16650390625,1.8463134765625,1.74713134765625,0.66375732421875,GOOD
2021-11-06 02:07:40.951999,-1.56396484375,0.14990234375,1.14892578125,1.5869140625,0.55694580078125,0.67901611328125,GOOD
2021-11-06 02:07:41.311993,-1.56396484375,0.14990234375,1.14892578125,1.5869140625,0.55694580078125,0.67901611328125,GOOD
2021-11-06 02:07:41.672074,-1.56396484375,0.14990234375,1.14892578125,1.5869140625,0.55694580078125,0.67901611328125,GOOD
2021-11-06 02:07:42.031989,-1.55908203125,0.150390625,1.1728515625,1.03759765625,0.1678466796875,0.51116943359375,GOOD
2021-11-06 02:07:42.436941,-1.55908203125,0.150390625,1.1728515625,1.03759765625,0.1678466796875,0.51116943359375,GOOD
2021-11-06 02:07:42.797056,-1.55908203125,0.150390625,1.1728515625,1.62506103515625,1.251220703125,0.67138671875,GOOD
2021-11-06 02:07:43.157410,-1.5693359375,0.14404296875,1.15625,1.62506103515625,1.251220703125,0.67138671875,GOOD
2021-11-06 02:07:43.516910,-1.5693359375,0.14404296875,1.15625,1.62506103515625,1.251220703125,0.67138671875,GOOD
2021-11-06 02:07:43.921918,-1.5595703125,0.15185546875,1.1640625,1.9073486328125,0.9765625,0.83160400390625,GOOD
2021-11-06 02:07:44.281928,-1.5595703125,0.15185546875,1.1640625,1.9073486328125,0.9765625,0.83160400390625,GOOD
2021-11-06 02:07:44.641803,-1.5595703125,0.15185546875,1.1640625,1.9073486328125,0.9765625,0.83160400390625,GOOD
2021-11-06 02:07:45.001800,-1.55615234375,0.15625,1.1845703125,2.43377685546875,1.03759765625,-0.34332275390625,GOOD
2021-11-06 02:07:45.361766,-1.55615234375,0.15625,1.1845703125,2.43377685546875,1.03759765625,-0.34332275390625,GOOD
2021-11-06 02:07:45.766766,-1.55615234375,0.15625,1.1845703125,2.43377685546875,1.03759765625,-0.34332275390625,GOOD
2021-11-06 02:07:46.126808,-1.54931640625,0.16650390625,1.17333984375,1.10626220703125,1.62506103515625,1.02996826171875,GOOD
2021-11-06 02:07:46.486812,-1.54931640625,0.16650390625,1.17333984375,1.10626220703125,1.62506103515625,1.02996826171875,GOOD
2021-11-06 02:07:46.846817,-1.54931640625,0.16650390625,1.17333984375,2.3345947265625,1.52587890625,0.20599365234375,GOOD
2021-11-06 02:07:47.206786,-1.564453125,0.1474609375,1.17333984375,2.3345947265625,1.52587890625,0.20599365234375,GOOD
2021-11-06 02:07:47.566648,-1.564453125,0.1474609375,1.17333984375,2.3345947265625,1.52587890625,0.20599365234375,GOOD
2021-11-06 02:07:47.926711,-1.568359375,0.15966796875,1.16357421875,2.41851806640625,0.70953369140625,0.81634521484375,GOOD
2021-11-06 02:07:48.286689,-1.568359375,0.15966796875,1.16357421875,2.41851806640625,0.70953369140625,0.81634521484375,GOOD
2021-11-06 02:07:48.646781,-1.568359375,0.15966796875,1.16357421875,2.41851806640625,0.70953369140625,0.81634521484375,GOOD
2021-11-06 02:07:49.051613,-1.5458984375,0.154296875,1.18701171875,1.64794921875,1.3427734375,1.8768310546875,GOOD
2021-11-06 02:07:49.456595,-1.5458984375,0.154296875,1.18701171875,1.64794921875,1.3427734375,1.8768310546875,GOOD
2021-11-06 02:07:49.816688,-1.5458984375,0.154296875,1.18701171875,1.67083740234375,1.77001953125,0.9918212890625,GOOD
2021-11-06 02:07:50.221524,-1.5458984375,0.15576171875,1.171875,1.67083740234375,1.77001953125,0.9918212890625,GOOD
2021-11-06 02:07:50.581569,-1.5458984375,0.15576171875,1.171875,1.67083740234375,1.77001953125,0.9918212890625,GOOD
2021-11-06 02:07:50.941617,-1.55078125,0.15380859375,1.1875,0.92315673828125,1.1444091796875,0.4730224609375,GOOD
2021-11-06 02:07:51.301446,-1.55078125,0.15380859375,1.1875,0.92315673828125,1.1444091796875,0.4730224609375,GOOD
2021-11-06 02:07:51.661473,-1.55078125,0.15380859375,1.1875,0.92315673828125,1.1444091796875,0.4730224609375,GOOD
2021-11-06 02:07:52.021456,-1.54345703125,0.1484375,1.1875,1.7852783203125,1.7547607421875,1.739501953125,GOOD
2021-11-06 02:07:52.381971,-1.54345703125,0.1484375,1.1875,1.7852783203125,1.7547607421875,1.739501953125,GOOD
2021-11-06 02:07:52.831470,-1.54345703125,0.1484375,1.1875,1.3885498046875,0.457763671875,0.51116943359375,GOOD
2021-11-06 02:07:53.236412,-1.5419921875,0.1396484375,1.1865234375,1.3885498046875,0.457763671875,0.51116943359375,GOOD
2021-11-06 02:07:53.596402,-1.5419921875,0.1396484375,1.1865234375,1.3885498046875,0.457763671875,0.51116943359375,GOOD
2021-11-06 02:07:53.956376,-1.52783203125,0.1484375,1.203125,1.6937255859375,0.9765625,1.27410888671875,GOOD
2021-11-06 02:07:54.361395,-1.52783203125,0.1484375,1.203125,1.6937255859375,0.9765625,1.27410888671875,GOOD
2021-11-06 02:07:54.721353,-1.52783203125,0.1484375,1.203125,1.6937255859375,0.9765625,1.27410888671875,GOOD
2021-11-06 02:07:55.081332,-1.546875,0.1591796875,1.1826171875,1.31988525390625,0.93841552734375,1.312255859375,GOOD
2021-11-06 02:07:55.441275,-1.546875,0.1591796875,1.1826171875,1.31988525390625,0.93841552734375,1.312255859375,GOOD
2021-11-06 02:07:55.801345,-1.546875,0.1591796875,1.1826171875,1.434326171875,1.068115234375,0.60272216796875,GOOD
2021-11-06 02:07:56.206259,-1.537109375,0.1591796875,1.1884765625,1.434326171875,1.068115234375,0.60272216796875,GOOD
2021-11-06 02:07:56.566246,-1.537109375,0.1591796875,1.1884765625,1.434326171875,1.068115234375,0.60272216796875,GOOD
2021-11-06 02:07:56.926219,-1.55224609375,0.1376953125,1.18408203125,1.4190673828125,1.35040283203125,0.48065185546875,GOOD
2021-11-06 02:07:57.331290,-1.55224609375,0.1376953125,1.18408203125,1.4190673828125,1.35040283203125,0.48065185546875,GOOD
2021-11-06 02:07:57.691265,-1.55224609375,0.1376953125,1.18408203125,1.4190673828125,1.35040283203125,0.48065185546875,GOOD
2021-11-06 02:07:58.051147,-1.576171875,0.14208984375,1.14990234375,1.7242431640625,7.13348388671875,0.83160400390625,GOOD
2021-11-06 02:07:58.411188,-1.576171875,0.14208984375,1.14990234375,1.7242431640625,7.13348388671875,0.83160400390625,GOOD
2021-11-06 02:07:58.816154,-1.576171875,0.14208984375,1.14990234375,1.04522705078125,-0.00762939453125,1.617431640625,GOOD
2021-11-06 02:07:59.176145,-1.60693359375,0.1416015625,1.07275390625,1.04522705078125,-0.00762939453125,1.617431640625,GOOD
2021-11-06 02:07:59.536075,-1.60693359375,0.1416015625,1.07275390625,1.04522705078125,-0.00762939453125,1.617431640625,GOOD
2021-11-06 02:07:59.896132,-1.58154296875,0.15478515625,1.119140625,1.60980224609375,0.51116943359375,0.87738037109375,GOOD
2021-11-06 02:08:00.346047,-1.58154296875,0.15478515625,1.119140625,1.60980224609375,0.51116943359375,0.87738037109375,GOOD
2021-11-06 02:08:00.706118,-1.58154296875,0.15478515625,1.119140625,1.60980224609375,0.51116943359375,0.87738037109375,GOOD
2021-11-06 02:08:01.066076,-1.58544921875,0.1533203125,1.10986328125,1.67083740234375,0.91552734375,1.2664794921875,GOOD
2021-11-06 02:08:01.426070,-1.58544921875,0.1533203125,1.10986328125,1.67083740234375,0.91552734375,1.2664794921875,GOOD
2021-11-06 02:08:01.876024,-1.58544921875,0.1533203125,1.10986328125,1.28173828125,1.27410888671875,0.9002685546875,GOOD
2021-11-06 02:08:02.236470,-1.5869140625,0.1513671875,1.11669921875,1.28173828125,1.27410888671875,0.9002685546875,GOOD
2021-11-06 02:08:02.595977,-1.5869140625,0.1513671875,1.11669921875,1.28173828125,1.27410888671875,0.9002685546875,GOOD
2021-11-06 02:08:02.956027,-1.560546875,0.138671875,1.16650390625,0.0152587890625,0.11444091796875,1.068115234375,GOOD
2021-11-06 02:08:03.315933,-1.560546875,0.138671875,1.16650390625,0.0152587890625,0.11444091796875,1.068115234375,GOOD
2021-11-06 02:08:03.675935,-1.560546875,0.138671875,1.16650390625,0.0152587890625,0.11444091796875,1.068115234375,GOOD
2021-11-06 02:08:04.035857,-1.560546875,0.13671875,1.1552734375,-0.2288818359375,0.762939453125,2.96783447265625,GOOD
2021-11-06 02:08:04.440866,-1.560546875,0.13671875,1.1552734375,-0.2288818359375,0.762939453125,2.96783447265625,GOOD
2021-11-06 02:08:04.800834,-1.560546875,0.13671875,1.1552734375,2.08282470703125,-0.55694580078125,0.51116943359375,GOOD
2021-11-06 02:08:05.160852,-1.5537109375,0.13623046875,1.18212890625,2.08282470703125,-0.55694580078125,0.51116943359375,GOOD
2021-11-06 02:08:05.520811,-1.5537109375,0.13623046875,1.18212890625,2.08282470703125,-0.55694580078125,0.51116943359375,GOOD
2021-11-06 02:08:05.925790,-1.26708984375,0.01416015625,1.48095703125,-7.2021484375,-12.1612548828125,8.96453857421875,GOOD
2021-11-06 02:08:06.285785,-1.26708984375,0.01416015625,1.48095703125,-7.2021484375,-12.1612548828125,8.96453857421875,GOOD
2021-11-06 02:08:06.645853,-1.26708984375,0.01416015625,1.48095703125,-7.2021484375,-12.1612548828125,8.96453857421875,GOOD
2021-11-06 02:08:07.005770,-0.91748046875,-0.1923828125,1.72705078125,2.2735595703125,-5.1116943359375,-4.57763671875,GOOD
2021-11-06 02:08:07.365821,-0.91748046875,-0.1923828125,1.72705078125,2.2735595703125,-5.1116943359375,-4.57763671875,GOOD
2021-11-06 02:08:07.725744,-0.91748046875,-0.1923828125,1.72705078125,2.2735595703125,-5.1116943359375,-4.57763671875,BAD
2021-11-06 02:08:08.130758,-0.75732421875,-0.12109375,1.81640625,2.99072265625,0.83160400390625,0.02288818359375,BAD
2021-11-06 02:08:08.490711,-0.75732421875,-0.12109375,1.81640625,2.99072265625,0.83160400390625,0.02288818359375,BAD
2021-11-06 02:08:08.850646,-0.75732421875,-0.12109375,1.81640625,2.7008056640625,1.0986328125,0.78582763671875,BAD
2021-11-06 02:08:09.210679,-0.75439453125,-0.13525390625,1.806640625,2.7008056640625,1.0986328125,0.78582763671875,BAD
2021-11-06 02:08:09.570650,-0.75439453125,-0.13525390625,1.806640625,2.7008056640625,1.0986328125,0.78582763671875,BAD
2021-11-06 02:08:09.931259,-0.73046875,-0.15380859375,1.818359375,1.67083740234375,1.678466796875,1.2664794921875,BAD
2021-11-06 02:08:10.290649,-0.73046875,-0.15380859375,1.818359375,1.67083740234375,1.678466796875,1.2664794921875,BAD
2021-11-06 02:08:10.650601,-0.73046875,-0.15380859375,1.818359375,1.67083740234375,1.678466796875,1.2664794921875,BAD
2021-11-06 02:08:11.055550,-0.7021484375,-0.171875,1.822265625,-2.166748046875,0.701904296875,3.1585693359375,BAD
2021-11-06 02:08:11.415572,-0.7021484375,-0.171875,1.822265625,-2.166748046875,0.701904296875,3.1585693359375,BAD
2021-11-06 02:08:11.775539,-0.7021484375,-0.171875,1.822265625,-2.166748046875,0.701904296875,3.1585693359375,BAD
2021-11-06 02:08:12.135485,-0.6962890625,-0.14111328125,1.82958984375,0.17547607421875,0.81634521484375,1.21307373046875,BAD
2021-11-06 02:08:12.495575,-0.6962890625,-0.14111328125,1.82958984375,0.17547607421875,0.81634521484375,1.21307373046875,BAD
2021-11-06 02:08:12.855503,-0.6962890625,-0.14111328125,1.82958984375,1.64031982421875,0.99945068359375,0.640869140625,BAD
2021-11-06 02:08:13.215513,-0.6904296875,-0.14453125,1.8359375,1.64031982421875,0.99945068359375,0.640869140625,BAD
2021-11-06 02:08:13.575480,-0.6904296875,-0.14453125,1.8359375,1.64031982421875,0.99945068359375,0.640869140625,BAD
2021-11-06 02:08:13.935454,-0.69189453125,-0.15478515625,1.8349609375,1.9378662109375,1.7242431640625,1.18255615234375,BAD
2021-11-06 02:08:14.295479,-0.69189453125,-0.15478515625,1.8349609375,1.9378662109375,1.7242431640625,1.18255615234375,BAD
2021-11-06 02:08:14.655449,-0.69189453125,-0.15478515625,1.8349609375,1.9378662109375,1.7242431640625,1.18255615234375,BAD
2021-11-06 02:08:15.015357,-0.69775390625,-0.1396484375,1.8291015625,0.823974609375,2.41851806640625,2.06756591796875,BAD
2021-11-06 02:08:15.375367,-0.69775390625,-0.1396484375,1.8291015625,0.823974609375,2.41851806640625,2.06756591796875,BAD
2021-11-06 02:08:15.735409,-0.69775390625,-0.1396484375,1.8291015625,0.823974609375,2.41851806640625,2.06756591796875,BAD
2021-11-06 02:08:16.095352,-0.69091796875,-0.150390625,1.8359375,2.471923828125,0.26702880859375,1.01470947265625,BAD
2021-11-06 02:08:16.455317,-0.69091796875,-0.150390625,1.8359375,2.471923828125,0.26702880859375,1.01470947265625,BAD
2021-11-06 02:08:16.815337,-0.69091796875,-0.150390625,1.8359375,2.14385986328125,1.2664794921875,1.52587890625,BAD
2021-11-06 02:08:17.175355,-0.6884765625,-0.1376953125,1.84423828125,2.14385986328125,1.2664794921875,1.52587890625,BAD
2021-11-06 02:08:17.535216,-0.6884765625,-0.1376953125,1.84423828125,2.14385986328125,1.2664794921875,1.52587890625,BAD
2021-11-06 02:08:17.895223,-0.6884765625,-0.14111328125,1.830078125,1.54876708984375,1.35040283203125,0.83160400390625,BAD
2021-11-06 02:08:18.255271,-0.6884765625,-0.14111328125,1.830078125,1.54876708984375,1.35040283203125,0.83160400390625,BAD
2021-11-06 02:08:18.615270,-0.6884765625,-0.14111328125,1.830078125,1.54876708984375,1.35040283203125,0.83160400390625,BAD
2021-11-06 02:08:18.975291,-0.6875,-0.138671875,1.837890625,1.678466796875,1.373291015625,0.35858154296875,BAD
2021-11-06 02:08:19.335163,-0.6875,-0.138671875,1.837890625,1.678466796875,1.373291015625,0.35858154296875,BAD
2021-11-06 02:08:19.695182,-0.6875,-0.138671875,1.837890625,1.678466796875,1.373291015625,0.35858154296875,BAD
2021-11-06 02:08:20.055185,-0.6953125,-0.146484375,1.83203125,1.739501953125,0.9918212890625,0.48828125,BAD
2021-11-06 02:08:20.415208,-0.6953125,-0.146484375,1.83203125,1.739501953125,0.9918212890625,0.48828125,BAD
2021-11-06 02:08:20.775185,-0.6953125,-0.146484375,1.83203125,1.739501953125,0.9918212890625,0.48828125,BAD
2021-11-06 02:08:21.180232,-0.6943359375,-0.14501953125,1.85302734375,1.5869140625,1.48773193359375,0.8697509765625,BAD
2021-11-06 02:08:21.540118,-0.6943359375,-0.14501953125,1.85302734375,1.5869140625,1.48773193359375,0.8697509765625,BAD
2021-11-06 02:08:21.900128,-0.6962890625,-0.13037109375,1.83642578125,1.7547607421875,0.63323974609375,1.15203857421875,BAD
2021-11-06 02:08:22.260042,-0.6962890625,-0.13037109375,1.83642578125,1.7547607421875,0.63323974609375,1.15203857421875,BAD
2021-11-06 02:08:22.620072,-0.6962890625,-0.13037109375,1.83642578125,1.7547607421875,0.63323974609375,1.15203857421875,BAD
2021-11-06 02:08:22.980041,-0.7021484375,-0.13232421875,1.82666015625,1.220703125,1.50299072265625,0.9307861328125,BAD
2021-11-06 02:08:23.340037,-0.7021484375,-0.13232421875,1.82666015625,1.220703125,1.50299072265625,0.9307861328125,BAD
2021-11-06 02:08:23.700464,-0.7021484375,-0.13232421875,1.82666015625,1.220703125,1.50299072265625,0.9307861328125,BAD
2021-11-06 02:08:24.059913,-0.6943359375,-0.1416015625,1.837890625,2.05230712890625,1.33514404296875,0.762939453125,BAD
2021-11-06 02:08:24.419938,-0.6943359375,-0.1416015625,1.837890625,2.05230712890625,1.33514404296875,0.762939453125,BAD
2021-11-06 02:08:24.780077,-0.6943359375,-0.1416015625,1.837890625,2.05230712890625,1.33514404296875,0.762939453125,BAD
2021-11-06 02:08:25.139991,-0.6953125,-0.13916015625,1.83349609375,1.19781494140625,1.07574462890625,0.7171630859375,BAD
2021-11-06 02:08:25.500012,-0.6953125,-0.13916015625,1.83349609375,1.19781494140625,1.07574462890625,0.7171630859375,BAD
2021-11-06 02:08:25.859896,-0.6953125,-0.13916015625,1.83349609375,1.85394287109375,1.8310546875,0.67138671875,BAD
2021-11-06 02:08:26.219867,-0.69775390625,-0.1474609375,1.8427734375,1.85394287109375,1.8310546875,0.67138671875,BAD
2021-11-06 02:08:26.579903,-0.69775390625,-0.1474609375,1.8427734375,1.85394287109375,1.8310546875,0.67138671875,BAD
2021-11-06 02:08:26.939868,-0.693359375,-0.14501953125,1.83544921875,1.59454345703125,1.38092041015625,0.9307861328125,BAD
2021-11-06 02:08:27.389813,-0.693359375,-0.14501953125,1.83544921875,1.59454345703125,1.38092041015625,0.9307861328125,BAD
2021-11-06 02:08:27.749869,-0.693359375,-0.14501953125,1.83544921875,1.59454345703125,1.38092041015625,0.9307861328125,BAD
2021-11-06 02:08:28.154910,-0.69091796875,-0.13818359375,1.845703125,1.59454345703125,0.81634521484375,0.81634521484375,BAD
2021-11-06 02:08:28.514814,-0.69091796875,-0.13818359375,1.845703125,1.59454345703125,0.81634521484375,0.81634521484375,BAD
2021-11-06 02:08:28.919718,-0.69091796875,-0.1474609375,1.818359375,1.54876708984375,1.02996826171875,0.9307861328125,BAD
2021-11-06 02:08:29.279765,-0.69091796875,-0.1474609375,1.818359375,1.54876708984375,1.02996826171875,0.9307861328125,BAD
2021-11-06 02:08:29.639763,-0.69091796875,-0.1474609375,1.818359375,1.54876708984375,1.02996826171875,0.9307861328125,BAD
2021-11-06 02:08:29.999690,-0.7041015625,-0.14697265625,1.83447265625,1.4801025390625,1.4801025390625,0.63323974609375,BAD
2021-11-06 02:08:30.359757,-0.7041015625,-0.14697265625,1.83447265625,1.4801025390625,1.4801025390625,0.63323974609375,BAD
2021-11-06 02:08:30.719655,-0.7041015625,-0.14697265625,1.83447265625,1.4801025390625,1.4801025390625,0.63323974609375,BAD
2021-11-06 02:08:31.079708,-0.70068359375,-0.13134765625,1.8388671875,1.52587890625,1.80816650390625,0.579833984375,BAD
2021-11-06 02:08:31.439660,-0.70068359375,-0.13134765625,1.8388671875,1.52587890625,1.80816650390625,0.579833984375,BAD
2021-11-06 02:08:31.799626,-0.70068359375,-0.13134765625,1.8388671875,1.64794921875,1.12152099609375,0.74005126953125,BAD
2021-11-06 02:08:32.159658,-0.69384765625,-0.1259765625,1.83837890625,1.64794921875,1.12152099609375,0.74005126953125,BAD
2021-11-06 02:08:32.519613,-0.69384765625,-0.1259765625,1.83837890625,1.64794921875,1.12152099609375,0.74005126953125,BAD
2021-11-06 02:08:32.879683,-0.69677734375,-0.13037109375,1.8310546875,1.6937255859375,0.457763671875,1.18255615234375,BAD
2021-11-06 02:08:33.239582,-0.69677734375,-0.13037109375,1.8310546875,1.6937255859375,0.457763671875,1.18255615234375,BAD
2021-11-06 02:08:33.599577,-0.69677734375,-0.13037109375,1.8310546875,1.6937255859375,0.457763671875,1.18255615234375,BAD
2021-11-06 02:08:33.959623,-0.693359375,-0.13916015625,1.85302734375,1.77001953125,1.64794921875,0.45013427734375,BAD
2021-11-06 02:08:34.319543,-0.693359375,-0.13916015625,1.85302734375,1.77001953125,1.64794921875,0.45013427734375,BAD
2021-11-06 02:08:34.679573,-0.693359375,-0.13916015625,1.85302734375,1.77001953125,1.64794921875,0.45013427734375,BAD
2021-11-06 02:08:35.084419,-0.6982421875,-0.13232421875,1.833984375,1.30462646484375,1.3580322265625,0.457763671875,BAD
2021-11-06 02:08:35.444456,-0.6982421875,-0.13232421875,1.833984375,1.30462646484375,1.3580322265625,0.457763671875,BAD
2021-11-06 02:08:35.804402,-0.6982421875,-0.13232421875,1.833984375,1.6937255859375,1.35040283203125,0.75531005859375,BAD
2021-11-06 02:08:36.164497,-0.70556640625,-0.14892578125,1.8349609375,1.6937255859375,1.35040283203125,0.75531005859375,BAD
2021-11-06 02:08:36.524419,-0.70556640625,-0.14892578125,1.8349609375,1.6937255859375,1.35040283203125,0.75531005859375,BAD
2021-11-06 02:08:36.884418,-0.7119140625,-0.13525390625,1.82568359375,1.5411376953125,1.38092041015625,1.0833740234375,BAD
2021-11-06 02:08:37.289388,-0.7119140625,-0.13525390625,1.82568359375,1.5411376953125,1.38092041015625,1.0833740234375,BAD
2021-11-06 02:08:37.649428,-0.7119140625,-0.13525390625,1.82568359375,1.5411376953125,1.38092041015625,1.0833740234375,BAD
2021-11-06 02:08:38.009412,-0.72314453125,-0.13037109375,1.826171875,1.97601318359375,1.16729736328125,1.0223388671875,BAD
2021-11-06 02:08:38.369373,-0.72314453125,-0.13037109375,1.826171875,1.97601318359375,1.16729736328125,1.0223388671875,BAD
2021-11-06 02:08:38.729419,-0.72314453125,-0.13037109375,1.826171875,1.97601318359375,1.16729736328125,1.0223388671875,BAD
2021-11-06 02:08:39.089284,-0.71337890625,-0.150390625,1.83740234375,2.0904541015625,1.312255859375,0.60272216796875,BAD
2021-11-06 02:08:39.449281,-0.71337890625,-0.150390625,1.83740234375,2.0904541015625,1.312255859375,0.60272216796875,BAD
2021-11-06 02:08:39.809240,-0.71337890625,-0.150390625,1.83740234375,2.01416015625,1.617431640625,-0.45013427734375,BAD
2021-11-06 02:08:40.169218,-0.71484375,-0.15087890625,1.80810546875,2.01416015625,1.617431640625,-0.45013427734375,BAD
2021-11-06 02:08:40.529354,-0.71484375,-0.15087890625,1.80810546875,2.01416015625,1.617431640625,-0.45013427734375,BAD
2021-11-06 02:08:40.934216,-0.69873046875,-0.10107421875,1.849609375,2.86102294921875,-0.00762939453125,-0.1220703125,BAD
2021-11-06 02:08:41.294176,-0.69873046875,-0.10107421875,1.849609375,2.86102294921875,-0.00762939453125,-0.1220703125,BAD
2021-11-06 02:08:41.654171,-0.69873046875,-0.10107421875,1.849609375,2.86102294921875,-0.00762939453125,-0.1220703125,BAD
2021-11-06 02:08:42.014185,-0.693359375,-0.0751953125,1.8359375,1.01470947265625,2.86865234375,0.87738037109375,BAD
2021-11-06 02:08:42.374174,-0.693359375,-0.0751953125,1.8359375,1.01470947265625,2.86865234375,0.87738037109375,BAD
2021-11-06 02:08:42.734185,-0.693359375,-0.0751953125,1.8359375,1.01470947265625,2.86865234375,0.87738037109375,BAD
2021-11-06 02:08:43.094165,-0.73828125,-0.18359375,1.8427734375,-8.5601806640625,13.31329345703125,16.10565185546875,BAD
2021-11-06 02:08:43.454097,-0.73828125,-0.18359375,1.8427734375,-8.5601806640625,13.31329345703125,16.10565185546875,BAD
2021-11-06 02:08:43.814138,-0.73828125,-0.18359375,1.8427734375,14.251708984375,24.54376220703125,-3.05938720703125,BAD
2021-11-06 02:08:44.174085,-1.31298828125,0.22412109375,1.40478515625,14.251708984375,24.54376220703125,-3.05938720703125,BAD
2021-11-06 02:08:44.534090,-1.31298828125,0.22412109375,1.40478515625,14.251708984375,24.54376220703125,-3.05938720703125,BAD
2021-11-06 02:08:45.119079,-1.6259765625,0.18603515625,1.064453125,7.53021240234375,10.4827880859375,-5.92041015625,BAD
2021-11-06 02:08:45.614550,-1.6259765625,0.18603515625,1.064453125,7.53021240234375,10.4827880859375,-5.92041015625,BAD
2021-11-06 02:08:46.018976,-1.7041015625,0.1416015625,0.91650390625,2.25830078125,4.2724609375,0.29754638671875,GOOD
2021-11-06 02:08:46.469474,-1.7041015625,0.1416015625,0.91650390625,2.25830078125,4.2724609375,0.29754638671875,GOOD
2021-11-06 02:08:46.963973,-1.7041015625,0.1416015625,0.91650390625,-8.47625732421875,-8.70513916015625,6.12640380859375,GOOD
2021-11-06 02:08:47.504385,-1.64501953125,0.18359375,1.03955078125,-8.47625732421875,-8.70513916015625,6.12640380859375,GOOD
2021-11-06 02:08:48.043962,-1.64501953125,0.18359375,1.03955078125,4.5013427734375,0.69427490234375,-0.66375732421875,GOOD
2021-11-06 02:08:48.493873,-1.6162109375,0.19140625,1.06103515625,4.5013427734375,0.69427490234375,-0.66375732421875,GOOD
2021-11-06 02:08:48.943953,-1.6162109375,0.19140625,1.06103515625,1.88446044921875,-0.030517578125,3.73077392578125,GOOD
2021-11-06 02:08:49.393931,-1.640625,0.2080078125,1.0419921875,1.88446044921875,-0.030517578125,3.73077392578125,GOOD
2021-11-06 02:08:49.798892,-1.640625,0.2080078125,1.0419921875,0.7476806640625,0.0457763671875,0.030517578125,GOOD
2021-11-06 02:08:50.158861,-1.6552734375,0.19873046875,1.0029296875,0.7476806640625,0.0457763671875,0.030517578125,GOOD
2021-11-06 02:08:50.518858,-1.6552734375,0.19873046875,1.0029296875,0.7476806640625,0.0457763671875,0.030517578125,GOOD
2021-11-06 02:08:50.878880,-1.69921875,0.197265625,0.9296875,2.41851806640625,2.15911865234375,1.06048583984375,GOOD
2021-11-06 02:08:51.283794,-1.69921875,0.197265625,0.9296875,2.41851806640625,2.15911865234375,1.06048583984375,GOOD
2021-11-06 02:08:51.823777,-1.69921875,0.197265625,0.9296875,2.41851806640625,2.15911865234375,1.06048583984375,GOOD
2021-11-06 02:08:52.228844,-1.68310546875,0.19091796875,0.97412109375,1.28173828125,4.41741943359375,-0.457763671875,GOOD
2021-11-06 02:08:52.588753,-1.68310546875,0.19091796875,0.97412109375,1.28173828125,4.41741943359375,-0.457763671875,GOOD
2021-11-06 02:08:53.128771,-1.69384765625,0.19970703125,0.94677734375,0.732421875,1.129150390625,1.53350830078125,GOOD
2021-11-06 02:08:53.488835,-1.69384765625,0.19970703125,0.94677734375,0.732421875,1.129150390625,1.53350830078125,GOOD
2021-11-06 02:08:53.893696,-1.650390625,0.16552734375,1.02392578125,1.0528564453125,-1.28173828125,0.8392333984375,GOOD
2021-11-06 02:08:54.253649,-1.650390625,0.16552734375,1.02392578125,1.0528564453125,-1.28173828125,0.8392333984375,GOOD
2021-11-06 02:08:54.613774,-1.650390625,0.16552734375,1.02392578125,1.0528564453125,-1.28173828125,0.8392333984375,GOOD
2021-11-06 02:08:54.973605,-1.62841796875,0.16796875,1.05810546875,1.5869140625,0.4730224609375,1.80816650390625,GOOD
2021-11-06 02:08:55.333615,-1.62841796875,0.16796875,1.05810546875,1.5869140625,0.4730224609375,1.80816650390625,GOOD
2021-11-06 02:08:55.693620,-1.62841796875,0.16796875,1.05810546875,1.5869140625,0.4730224609375,1.80816650390625,GOOD
2021-11-06 02:08:56.098598,-1.63525390625,0.1640625,1.080078125,1.12152099609375,0.335693359375,0.51116943359375,GOOD
2021-11-06 02:08:56.503540,-1.63525390625,0.1640625,1.080078125,1.12152099609375,0.335693359375,0.51116943359375,GOOD
2021-11-06 02:08:56.863610,-1.63525390625,0.1640625,1.080078125,0.5645751953125,7.40814208984375,3.99017333984375,GOOD
2021-11-06 02:08:57.223514,-1.66650390625,0.18603515625,0.99560546875,0.5645751953125,7.40814208984375,3.99017333984375,GOOD
2021-11-06 02:08:57.583555,-1.66650390625,0.18603515625,0.99560546875,0.5645751953125,7.40814208984375,3.99017333984375,GOOD
2021-11-06 02:08:57.943465,-1.62548828125,0.1513671875,1.06689453125,1.3275146484375,-1.77764892578125,0.55694580078125,GOOD
2021-11-06 02:08:58.348456,-1.62548828125,0.1513671875,1.06689453125,1.3275146484375,-1.77764892578125,0.55694580078125,GOOD
2021-11-06 02:08:58.708422,-1.62548828125,0.1513671875,1.06689453125,1.3275146484375,-1.77764892578125,0.55694580078125,GOOD
2021-11-06 02:08:59.068539,-1.6064453125,0.16064453125,1.07861328125,0.6561279296875,0.3814697265625,1.5106201171875,GOOD
2021-11-06 02:08:59.428533,-1.6064453125,0.16064453125,1.07861328125,0.6561279296875,0.3814697265625,1.5106201171875,GOOD
2021-11-06 02:08:59.788995,-1.6064453125,0.16064453125,1.07861328125,2.02178955078125,2.47955322265625,1.89208984375,GOOD
2021-11-06 02:09:00.193478,-1.60400390625,0.146484375,1.08837890625,2.02178955078125,2.47955322265625,1.89208984375,GOOD
2021-11-06 02:09:00.598431,-1.60400390625,0.146484375,1.08837890625,2.02178955078125,2.47955322265625,1.89208984375,GOOD
2021-11-06 02:09:01.048361,-1.61474609375,0.16845703125,1.0908203125,1.5106201171875,1.5716552734375,0.0762939453125,GOOD
2021-11-06 02:09:01.453390,-1.61474609375,0.16845703125,1.0908203125,1.5106201171875,1.5716552734375,0.0762939453125,GOOD
2021-11-06 02:09:01.813377,-1.61474609375,0.16845703125,1.0908203125,1.861572265625,-2.3651123046875,2.777099609375,GOOD
2021-11-06 02:09:02.173382,-1.61083984375,0.1611328125,1.0986328125,1.861572265625,-2.3651123046875,2.777099609375,GOOD
2021-11-06 02:09:02.533280,-1.61083984375,0.1611328125,1.0986328125,1.861572265625,-2.3651123046875,2.777099609375,GOOD
2021-11-06 02:09:02.893317,-1.57666015625,0.14404296875,1.146484375,2.17437744140625,1.42669677734375,0.78582763671875,GOOD
2021-11-06 02:09:03.253273,-1.57666015625,0.14404296875,1.146484375,2.17437744140625,1.42669677734375,0.78582763671875,GOOD
2021-11-06 02:09:03.613366,-1.57666015625,0.14404296875,1.146484375,2.17437744140625,1.42669677734375,0.78582763671875,GOOD
2021-11-06 02:09:03.973245,-1.51611328125,0.1884765625,1.20263671875,2.50244140625,-0.43487548828125,-0.1678466796875,GOOD
2021-11-06 02:09:04.333230,-1.51611328125,0.1884765625,1.20263671875,2.50244140625,-0.43487548828125,-0.1678466796875,GOOD
2021-11-06 02:09:04.693206,-1.51611328125,0.1884765625,1.20263671875,2.50244140625,-0.43487548828125,-0.1678466796875,GOOD
2021-11-06 02:09:05.053251,-1.517578125,0.1943359375,1.177734375,3.23486328125,3.2958984375,0.7171630859375,GOOD
2021-11-06 02:09:05.413310,-1.517578125,0.1943359375,1.177734375,3.23486328125,3.2958984375,0.7171630859375,GOOD
2021-11-06 02:09:05.773240,-1.517578125,0.1943359375,1.177734375,3.23486328125,3.2958984375,0.7171630859375,GOOD
2021-11-06 02:09:06.133281,-1.52294921875,0.16259765625,1.20654296875,0.9002685546875,1.03759765625,1.52587890625,GOOD
2021-11-06 02:09:06.493224,-1.52294921875,0.16259765625,1.20654296875,0.9002685546875,1.03759765625,1.52587890625,GOOD
2021-11-06 02:09:06.898196,-1.52294921875,0.16259765625,1.20654296875,1.3885498046875,1.53350830078125,1.04522705078125,GOOD
2021-11-06 02:09:07.258186,-1.51513671875,0.16552734375,1.2099609375,1.3885498046875,1.53350830078125,1.04522705078125,GOOD
2021-11-06 02:09:07.663138,-1.51513671875,0.16552734375,1.2099609375,1.3885498046875,1.53350830078125,1.04522705078125,GOOD
2021-11-06 02:09:08.023121,-1.5068359375,0.15185546875,1.22509765625,3.021240234375,0.40435791015625,1.30462646484375,GOOD
2021-11-06 02:09:08.428134,-1.5068359375,0.15185546875,1.22509765625,3.021240234375,0.40435791015625,1.30462646484375,GOOD
2021-11-06 02:09:08.878035,-1.5068359375,0.15185546875,1.22509765625,2.2735595703125,0.8697509765625,-0.091552734375,GOOD
2021-11-06 02:09:09.237992,-1.4951171875,0.1650390625,1.24609375,2.2735595703125,0.8697509765625,-0.091552734375,GOOD
2021-11-06 02:09:09.598082,-1.4951171875,0.1650390625,1.24609375,2.2735595703125,0.8697509765625,-0.091552734375,GOOD
2021-11-06 02:09:10.003074,-1.501953125,0.16015625,1.24560546875,1.03759765625,1.1138916015625,1.0986328125,GOOD
2021-11-06 02:09:10.363057,-1.501953125,0.16015625,1.24560546875,1.03759765625,1.1138916015625,1.0986328125,GOOD
2021-11-06 02:09:10.722992,-1.501953125,0.16015625,1.24560546875,1.03759765625,1.1138916015625,1.0986328125,GOOD
2021-11-06 02:09:11.082954,-1.501953125,0.166015625,1.23095703125,1.0833740234375,1.82342529296875,0.91552734375,GOOD
2021-11-06 02:09:11.487927,-1.501953125,0.166015625,1.23095703125,1.0833740234375,1.82342529296875,0.91552734375,GOOD
2021-11-06 02:09:11.892947,-1.501953125,0.166015625,1.23095703125,0.99945068359375,0.67138671875,0.640869140625,GOOD
2021-11-06 02:09:12.252911,-1.51123046875,0.14990234375,1.23779296875,0.99945068359375,0.67138671875,0.640869140625,GOOD
2021-11-06 02:09:12.657952,-1.51123046875,0.14990234375,1.23779296875,0.99945068359375,0.67138671875,0.640869140625,GOOD
2021-11-06 02:09:13.017878,-1.5087890625,0.1650390625,1.228515625,2.11334228515625,1.1749267578125,2.7313232421875,GOOD
2021-11-06 02:09:13.422872,-1.5087890625,0.1650390625,1.228515625,2.11334228515625,1.1749267578125,2.7313232421875,GOOD
2021-11-06 02:09:13.872884,-1.5087890625,0.1650390625,1.228515625,3.88336181640625,2.0599365234375,3.28826904296875,GOOD
2021-11-06 02:09:14.232848,-1.505859375,0.12939453125,1.24609375,3.88336181640625,2.0599365234375,3.28826904296875,GOOD
2021-11-06 02:09:14.592922,-1.505859375,0.12939453125,1.24609375,3.88336181640625,2.0599365234375,3.28826904296875,GOOD
2021-11-06 02:09:14.952816,-1.515625,0.10009765625,1.22314453125,1.82342529296875,1.190185546875,-0.02288818359375,GOOD
2021-11-06 02:09:15.312827,-1.515625,0.10009765625,1.22314453125,1.82342529296875,1.190185546875,-0.02288818359375,GOOD
2021-11-06 02:09:15.717784,-1.515625,0.10009765625,1.22314453125,1.82342529296875,1.190185546875,-0.02288818359375,GOOD
2021-11-06 02:09:16.212821,-1.5947265625,0.17431640625,1.10986328125,2.78472900390625,5.9661865234375,3.1585693359375,GOOD
2021-11-06 02:09:16.572773,-1.5947265625,0.17431640625,1.10986328125,2.78472900390625,5.9661865234375,3.1585693359375,GOOD
2021-11-06 02:09:16.977719,-1.56640625,0.14990234375,1.1552734375,0.8392333984375,0.23651123046875,0.9918212890625,GOOD
2021-11-06 02:09:17.337711,-1.56640625,0.14990234375,1.1552734375,0.8392333984375,0.23651123046875,0.9918212890625,GOOD
2021-11-06 02:09:17.697688,-1.56640625,0.14990234375,1.1552734375,0.8392333984375,0.23651123046875,0.9918212890625,GOOD
2021-11-06 02:09:18.102722,-1.55322265625,0.16943359375,1.16796875,1.35040283203125,0.9307861328125,1.5716552734375,GOOD
2021-11-06 02:09:18.597720,-1.55322265625,0.16943359375,1.16796875,1.35040283203125,0.9307861328125,1.5716552734375,GOOD
2021-11-06 02:09:19.002614,-1.5830078125,0.1591796875,1.1298828125,2.81524658203125,3.0364990234375,1.60980224609375,GOOD
2021-11-06 02:09:19.362701,-1.5830078125,0.1591796875,1.1298828125,2.81524658203125,3.0364990234375,1.60980224609375,GOOD
2021-11-06 02:09:19.767615,-1.5830078125,0.1591796875,1.1298828125,2.81524658203125,3.0364990234375,1.60980224609375,GOOD
2021-11-06 02:09:20.127646,-1.5771484375,0.16748046875,1.14208984375,1.5716552734375,0.43487548828125,0.79345703125,GOOD
2021-11-06 02:09:20.487583,-1.5771484375,0.16748046875,1.14208984375,1.5716552734375,0.43487548828125,0.79345703125,GOOD
2021-11-06 02:09:20.892633,-1.5771484375,0.16748046875,1.14208984375,1.62506103515625,0.67138671875,0.66375732421875,GOOD
2021-11-06 02:09:21.387570,-1.58349609375,0.1669921875,1.1376953125,1.62506103515625,0.67138671875,0.66375732421875,GOOD
2021-11-06 02:09:21.838018,-1.58349609375,0.1669921875,1.1376953125,1.56402587890625,2.00653076171875,1.922607421875,GOOD
2021-11-06 02:09:22.377564,-1.583984375,0.15771484375,1.14697265625,1.56402587890625,2.00653076171875,1.922607421875,GOOD
2021-11-06 02:09:22.782546,-1.583984375,0.15771484375,1.14697265625,0.8087158203125,0.22125244140625,-0.37384033203125,GOOD
2021-11-06 02:09:23.232482,-1.58251953125,0.15478515625,1.1318359375,0.8087158203125,0.22125244140625,-0.37384033203125,GOOD
2021-11-06 02:09:23.592495,-1.58251953125,0.15478515625,1.1318359375,0.8087158203125,0.22125244140625,-0.37384033203125,GOOD
2021-11-06 02:09:23.952473,-1.533203125,0.13525390625,1.1845703125,4.6539306640625,2.01416015625,0.0762939453125,GOOD
2021-11-06 02:09:24.312517,-1.533203125,0.13525390625,1.1845703125,4.6539306640625,2.01416015625,0.0762939453125,GOOD
2021-11-06 02:09:24.672462,-1.533203125,0.13525390625,1.1845703125,4.6539306640625,2.01416015625,0.0762939453125,GOOD
2021-11-06 02:09:25.032929,-1.498046875,0.12158203125,1.22412109375,-2.63214111328125,-5.1116943359375,2.14385986328125,GOOD
2021-11-06 02:09:25.437386,-1.498046875,0.12158203125,1.22412109375,-2.63214111328125,-5.1116943359375,2.14385986328125,GOOD
2021-11-06 02:09:25.842365,-1.498046875,0.12158203125,1.22412109375,1.19781494140625,4.29534912109375,1.4495849609375,GOOD
2021-11-06 02:09:26.247355,-1.5068359375,0.14794921875,1.23095703125,1.19781494140625,4.29534912109375,1.4495849609375,GOOD
2021-11-06 02:09:26.607417,-1.5068359375,0.14794921875,1.23095703125,1.19781494140625,4.29534912109375,1.4495849609375,GOOD
2021-11-06 02:09:26.967339,-1.69384765625,0.224609375,0.96875,0.3509521484375,0.946044921875,2.15911865234375,GOOD
2021-11-06 02:09:27.327410,-1.69384765625,0.224609375,0.96875,0.3509521484375,0.946044921875,2.15911865234375,GOOD
2021-11-06 02:09:27.687413,-1.69384765625,0.224609375,0.96875,0.3509521484375,0.946044921875,2.15911865234375,GOOD
2021-11-06 02:09:28.047349,-1.6240234375,0.1015625,1.06103515625,-0.55694580078125,0.3509521484375,2.38800048828125,GOOD
2021-11-06 02:09:28.452278,-1.6240234375,0.1015625,1.06103515625,-0.55694580078125,0.3509521484375,2.38800048828125,GOOD
2021-11-06 02:09:28.812438,-1.6240234375,0.1015625,1.06103515625,-1.12152099609375,-2.44903564453125,1.495361328125,GOOD
2021-11-06 02:09:29.217827,-1.634765625,0.09521484375,1.03759765625,-1.12152099609375,-2.44903564453125,1.495361328125,GOOD
2021-11-06 02:09:29.577308,-1.634765625,0.09521484375,1.03759765625,-1.12152099609375,-2.44903564453125,1.495361328125,GOOD
2021-11-06 02:09:29.937759,-1.6171875,0.09326171875,1.1025390625,1.9073486328125,2.532958984375,2.5482177734375,GOOD
2021-11-06 02:09:30.297265,-1.6171875,0.09326171875,1.1025390625,1.9073486328125,2.532958984375,2.5482177734375,GOOD
2021-11-06 02:09:30.702190,-1.6171875,0.09326171875,1.1025390625,1.9073486328125,2.532958984375,2.5482177734375,GOOD
2021-11-06 02:09:31.062242,-1.60205078125,0.125,1.1005859375,2.9449462890625,1.33514404296875,2.13623046875,GOOD
2021-11-06 02:09:31.422231,-1.60205078125,0.125,1.1005859375,2.9449462890625,1.33514404296875,2.13623046875,GOOD
2021-11-06 02:09:31.782127,-1.60205078125,0.125,1.1005859375,3.05938720703125,0.3662109375,0.46539306640625,GOOD
2021-11-06 02:09:32.187103,-1.58203125,0.111328125,1.138671875,3.05938720703125,0.3662109375,0.46539306640625,GOOD
2021-11-06 02:09:32.592133,-1.58203125,0.111328125,1.138671875,3.05938720703125,0.3662109375,0.46539306640625,GOOD
2021-11-06 02:09:32.952117,-1.55908203125,0.13525390625,1.13916015625,2.52532958984375,0.48828125,0.5645751953125,GOOD
2021-11-06 02:09:33.312170,-1.55908203125,0.13525390625,1.13916015625,2.52532958984375,0.48828125,0.5645751953125,GOOD
2021-11-06 02:09:33.717087,-1.55908203125,0.13525390625,1.13916015625,2.52532958984375,0.48828125,0.5645751953125,GOOD
2021-11-06 02:09:34.077182,-1.53857421875,0.12451171875,1.16650390625,1.48773193359375,0.60272216796875,0.48065185546875,GOOD
2021-11-06 02:09:34.482139,-1.53857421875,0.12451171875,1.16650390625,1.48773193359375,0.60272216796875,0.48065185546875,GOOD
2021-11-06 02:09:34.842034,-1.53857421875,0.12451171875,1.16650390625,-0.09918212890625,0.9613037109375,2.105712890625,GOOD
2021-11-06 02:09:35.201965,-1.525390625,0.126953125,1.21337890625,-0.09918212890625,0.9613037109375,2.105712890625,GOOD
2021-11-06 02:09:35.607020,-1.525390625,0.126953125,1.21337890625,-0.09918212890625,0.9613037109375,2.105712890625,GOOD
2021-11-06 02:09:35.966987,-1.59619140625,0.1484375,1.1025390625,2.3651123046875,6.01959228515625,2.044677734375,GOOD
2021-11-06 02:09:36.371979,-1.59619140625,0.1484375,1.1025390625,2.3651123046875,6.01959228515625,2.044677734375,GOOD
2021-11-06 02:09:36.731952,-1.59619140625,0.1484375,1.1025390625,2.3651123046875,6.01959228515625,2.044677734375,GOOD
2021-11-06 02:09:37.092026,-1.67919921875,0.1748046875,1.0029296875,2.0751953125,3.50189208984375,0.45013427734375,GOOD
2021-11-06 02:09:37.497570,-1.67919921875,0.1748046875,1.0029296875,2.0751953125,3.50189208984375,0.45013427734375,GOOD
2021-11-06 02:09:37.856978,-1.67919921875,0.1748046875,1.0029296875,1.2359619140625,-0.72479248046875,1.50299072265625,GOOD
2021-11-06 02:09:38.217021,-1.66015625,0.16650390625,1.0146484375,1.2359619140625,-0.72479248046875,1.50299072265625,GOOD
2021-11-06 02:09:38.621962,-1.66015625,0.16650390625,1.0146484375,1.2359619140625,-0.72479248046875,1.50299072265625,GOOD
2021-11-06 02:09:39.026962,-1.62890625,0.14697265625,1.04931640625,1.94549560546875,0.84686279296875,0.9918212890625,GOOD
2021-11-06 02:09:39.386860,-1.62890625,0.14697265625,1.04931640625,1.94549560546875,0.84686279296875,0.9918212890625,GOOD
2021-11-06 02:09:39.746934,-1.62890625,0.14697265625,1.04931640625,1.94549560546875,0.84686279296875,0.9918212890625,GOOD
2021-11-06 02:09:40.106899,-1.63818359375,0.158203125,1.05078125,1.64794921875,1.41143798828125,0.7476806640625,GOOD
2021-11-06 02:09:40.466884,-1.63818359375,0.158203125,1.05078125,1.64794921875,1.41143798828125,0.7476806640625,GOOD
2021-11-06 02:09:40.871856,-1.63818359375,0.158203125,1.05078125,1.50299072265625,2.29644775390625,1.3275146484375,GOOD
2021-11-06 02:09:41.231777,-1.64599609375,0.1376953125,1.04443359375,1.50299072265625,2.29644775390625,1.3275146484375,GOOD
2021-11-06 02:09:41.591793,-1.64599609375,0.1376953125,1.04443359375,1.50299072265625,2.29644775390625,1.3275146484375,GOOD
2021-11-06 02:09:41.951833,-1.64208984375,0.16455078125,1.044921875,0.9613037109375,1.10626220703125,0.75531005859375,GOOD
2021-11-06 02:09:42.311761,-1.64208984375,0.16455078125,1.044921875,0.9613037109375,1.10626220703125,0.75531005859375,GOOD
2021-11-06 02:09:42.671767,-1.64208984375,0.16455078125,1.044921875,0.9613037109375,1.10626220703125,0.75531005859375,GOOD
2021-11-06 02:09:43.031702,-1.638671875,0.14404296875,1.05615234375,1.19781494140625,0.52642822265625,0.41961669921875,GOOD
2021-11-06 02:09:43.391755,-1.638671875,0.14404296875,1.05615234375,1.19781494140625,0.52642822265625,0.41961669921875,GOOD
2021-11-06 02:09:43.796719,-1.638671875,0.14404296875,1.05615234375,1.434326171875,-0.38909912109375,-0.701904296875,GOOD
2021-11-06 02:09:44.156766,-1.6025390625,0.1025390625,1.087890625,1.434326171875,-0.38909912109375,-0.701904296875,GOOD
2021-11-06 02:09:44.516676,-1.6025390625,0.1025390625,1.087890625,1.434326171875,-0.38909912109375,-0.701904296875,GOOD
2021-11-06 02:09:44.921648,-1.5869140625,0.1123046875,1.13427734375,1.739501953125,0.732421875,1.25885009765625,GOOD
2021-11-06 02:09:45.281689,-1.5869140625,0.1123046875,1.13427734375,1.739501953125,0.732421875,1.25885009765625,GOOD
2021-11-06 02:09:45.641665,-1.5869140625,0.1123046875,1.13427734375,1.739501953125,0.732421875,1.25885009765625,GOOD
2021-11-06 02:09:46.046589,-1.57763671875,0.1220703125,1.14892578125,1.8310546875,1.0223388671875,1.51824951171875,GOOD
2021-11-06 02:09:46.406565,-1.57763671875,0.1220703125,1.14892578125,1.8310546875,1.0223388671875,1.51824951171875,GOOD
2021-11-06 02:09:46.766576,-1.57763671875,0.1220703125,1.14892578125,1.8310546875,1.0223388671875,1.51824951171875,GOOD
2021-11-06 02:09:47.126592,-1.556640625,0.130859375,1.15234375,1.83868408203125,0.78582763671875,0.80108642578125,GOOD
2021-11-06 02:09:47.486570,-1.556640625,0.130859375,1.15234375,1.83868408203125,0.78582763671875,0.80108642578125,GOOD
2021-11-06 02:09:47.846633,-1.556640625,0.130859375,1.15234375,1.5869140625,0.9307861328125,0.81634521484375,GOOD
2021-11-06 02:09:48.206531,-1.560546875,0.126953125,1.16748046875,1.5869140625,0.9307861328125,0.81634521484375,GOOD
2021-11-06 02:09:48.566520,-1.560546875,0.126953125,1.16748046875,1.5869140625,0.9307861328125,0.81634521484375,GOOD
2021-11-06 02:09:48.971549,-1.5634765625,0.13134765625,1.1611328125,1.3275146484375,1.35040283203125,1.19781494140625,GOOD
2021-11-06 02:09:49.421556,-1.5634765625,0.13134765625,1.1611328125,1.3275146484375,1.35040283203125,1.19781494140625,GOOD
2021-11-06 02:09:49.826546,-1.5634765625,0.13134765625,1.1611328125,1.73187255859375,0.83160400390625,1.312255859375,GOOD
2021-11-06 02:09:50.231510,-1.5703125,0.125,1.15234375,1.73187255859375,0.83160400390625,1.312255859375,GOOD
2021-11-06 02:09:50.636463,-1.5703125,0.125,1.15234375,1.73187255859375,0.83160400390625,1.312255859375,GOOD
2021-11-06 02:09:50.996464,-1.5888671875,0.1142578125,1.11328125,1.8157958984375,5.462646484375,1.36566162109375,GOOD
2021-11-06 02:09:51.401451,-1.5888671875,0.1142578125,1.11328125,1.8157958984375,5.462646484375,1.36566162109375,GOOD
2021-11-06 02:09:51.761454,-1.5888671875,0.1142578125,1.11328125,1.8157958984375,5.462646484375,1.36566162109375,GOOD
2021-11-06 02:09:52.121397,-1.6669921875,0.15478515625,0.986328125,2.51007080078125,2.57110595703125,1.47247314453125,GOOD
2021-11-06 02:09:52.481454,-1.6669921875,0.15478515625,0.986328125,2.51007080078125,2.57110595703125,1.47247314453125,GOOD
2021-11-06 02:09:52.931362,-1.6669921875,0.15478515625,0.986328125,1.68609619140625,0.7781982421875,0.64849853515625,GOOD
2021-11-06 02:09:53.336334,-1.65234375,0.16259765625,1.01123046875,1.68609619140625,0.7781982421875,0.64849853515625,GOOD
2021-11-06 02:09:53.696346,-1.65234375,0.16259765625,1.01123046875,1.68609619140625,0.7781982421875,0.64849853515625,GOOD
2021-11-06 02:09:54.056337,-1.6416015625,0.15380859375,1.0380859375,1.27410888671875,0.5340576171875,1.25885009765625,GOOD
2021-11-06 02:09:54.416279,-1.6416015625,0.15380859375,1.0380859375,1.27410888671875,0.5340576171875,1.25885009765625,GOOD
2021-11-06 02:09:54.866257,-1.6416015625,0.15380859375,1.0380859375,1.42669677734375,0.09918212890625,0.80108642578125,GOOD
2021-11-06 02:09:55.271342,-1.64697265625,0.14599609375,1.04736328125,1.42669677734375,0.09918212890625,0.80108642578125,GOOD
2021-11-06 02:09:55.631400,-1.64697265625,0.14599609375,1.04736328125,1.42669677734375,0.09918212890625,0.80108642578125,GOOD
2021-11-06 02:09:56.036303,-1.6328125,0.16357421875,1.03955078125,1.77764892578125,0.8697509765625,0.70953369140625,GOOD
2021-11-06 02:09:56.396338,-1.6328125,0.16357421875,1.03955078125,1.77764892578125,0.8697509765625,0.70953369140625,GOOD
2021-11-06 02:09:56.756213,-1.6328125,0.16357421875,1.03955078125,1.77764892578125,0.8697509765625,0.70953369140625,GOOD
2021-11-06 02:09:57.116191,-1.6259765625,0.16552734375,1.05029296875,1.42669677734375,0.396728515625,0.57220458984375,GOOD
2021-11-06 02:09:57.521219,-1.6259765625,0.16552734375,1.05029296875,1.42669677734375,0.396728515625,0.57220458984375,GOOD
2021-11-06 02:09:57.926210,-1.61767578125,0.15966796875,1.087890625,1.71661376953125,0.99945068359375,0.64849853515625,GOOD
2021-11-06 02:09:58.286191,-1.61767578125,0.15966796875,1.087890625,1.71661376953125,0.99945068359375,0.64849853515625,GOOD
2021-11-06 02:09:58.646208,-1.61767578125,0.15966796875,1.087890625,1.71661376953125,0.99945068359375,0.64849853515625,GOOD
2021-11-06 02:09:59.006142,-1.59912109375,0.15869140625,1.1044921875,1.59454345703125,0.93841552734375,1.251220703125,GOOD
2021-11-06 02:09:59.366091,-1.59912109375,0.15869140625,1.1044921875,1.59454345703125,0.93841552734375,1.251220703125,GOOD
2021-11-06 02:09:59.726147,-1.59912109375,0.15869140625,1.1044921875,1.59454345703125,0.93841552734375,1.251220703125,GOOD
2021-11-06 02:10:00.086066,-1.6025390625,0.1484375,1.10107421875,1.51824951171875,1.13677978515625,0.86212158203125,GOOD
2021-11-06 02:10:00.446123,-1.6025390625,0.1484375,1.10107421875,1.51824951171875,1.13677978515625,0.86212158203125,GOOD
2021-11-06 02:10:00.806185,-1.6025390625,0.1484375,1.10107421875,1.739501953125,1.25885009765625,1.251220703125,GOOD
2021-11-06 02:10:01.211097,-1.59716796875,0.150390625,1.08349609375,1.739501953125,1.25885009765625,1.251220703125,GOOD
2021-11-06 02:10:01.661228,-1.59716796875,0.150390625,1.08349609375,1.739501953125,1.25885009765625,1.251220703125,GOOD
2021-11-06 02:10:02.021113,-1.60009765625,0.1357421875,1.1201171875,1.82342529296875,1.312255859375,0.66375732421875,GOOD
2021-11-06 02:10:02.381114,-1.60009765625,0.1357421875,1.1201171875,1.82342529296875,1.312255859375,0.66375732421875,GOOD
2021-11-06 02:10:02.831202,-1.60009765625,0.1357421875,1.1201171875,1.82342529296875,1.312255859375,0.66375732421875,GOOD
2021-11-06 02:10:03.191108,-1.59130859375,0.14208984375,1.11376953125,1.56402587890625,0.84686279296875,0.6866455078125,GOOD
2021-11-06 02:10:03.551041,-1.59130859375,0.14208984375,1.11376953125,1.56402587890625,0.84686279296875,0.6866455078125,GOOD
2021-11-06 02:10:03.956034,-1.5751953125,0.1357421875,1.126953125,1.85394287109375,0.80108642578125,0.81634521484375,GOOD
2021-11-06 02:10:04.315999,-1.5751953125,0.1357421875,1.126953125,1.85394287109375,0.80108642578125,0.81634521484375,GOOD
2021-11-06 02:10:04.721026,-1.5751953125,0.1357421875,1.126953125,1.85394287109375,0.80108642578125,0.81634521484375,GOOD
2021-11-06 02:10:05.081014,-1.583984375,0.123046875,1.13720703125,1.62506103515625,0.579833984375,0.67138671875,GOOD
2021-11-06 02:10:05.441059,-1.583984375,0.123046875,1.13720703125,1.62506103515625,0.579833984375,0.67138671875,GOOD
2021-11-06 02:10:05.845988,-1.583984375,0.123046875,1.13720703125,1.64794921875,0.5645751953125,0.823974609375,GOOD
2021-11-06 02:10:06.205936,-1.5634765625,0.09814453125,1.1630859375,1.64794921875,0.5645751953125,0.823974609375,GOOD
2021-11-06 02:10:06.565939,-1.5634765625,0.09814453125,1.1630859375,1.64794921875,0.5645751953125,0.823974609375,GOOD
2021-11-06 02:10:06.926010,-1.55810546875,0.11083984375,1.16943359375,1.678466796875,0.7171630859375,1.0528564453125,GOOD
2021-11-06 02:10:07.285857,-1.55810546875,0.11083984375,1.16943359375,1.678466796875,0.7171630859375,1.0528564453125,GOOD
2021-11-06 02:10:07.646022,-1.55810546875,0.11083984375,1.16943359375,1.678466796875,0.7171630859375,1.0528564453125,GOOD
2021-11-06 02:10:08.005877,-1.541015625,0.1337890625,1.19482421875,2.03704833984375,0.37384033203125,1.47247314453125,GOOD
2021-11-06 02:10:08.365857,-1.541015625,0.1337890625,1.19482421875,2.03704833984375,0.37384033203125,1.47247314453125,GOOD
2021-11-06 02:10:08.725846,-1.541015625,0.1337890625,1.19482421875,2.03704833984375,0.37384033203125,1.47247314453125,GOOD
2021-11-06 02:10:09.085846,-1.533203125,0.15966796875,1.220703125,1.91497802734375,0.823974609375,1.220703125,GOOD
2021-11-06 02:10:09.446292,-1.533203125,0.15966796875,1.220703125,1.91497802734375,0.823974609375,1.220703125,GOOD
2021-11-06 02:10:09.850796,-1.533203125,0.15966796875,1.220703125,1.65557861328125,0.06103515625,0.51116943359375,GOOD
2021-11-06 02:10:10.210816,-1.546875,0.11083984375,1.19970703125,1.65557861328125,0.06103515625,0.51116943359375,GOOD
2021-11-06 02:10:10.570837,-1.546875,0.11083984375,1.19970703125,1.65557861328125,0.06103515625,0.51116943359375,GOOD
2021-11-06 02:10:10.975859,-1.34619140625,0.07763671875,1.4033203125,-3.37982177734375,-22.02606201171875,3.0975341796875,GOOD
2021-11-06 02:10:11.380768,-1.34619140625,0.07763671875,1.4033203125,-3.37982177734375,-22.02606201171875,3.0975341796875,GOOD
2021-11-06 02:10:11.740769,-1.34619140625,0.07763671875,1.4033203125,-3.37982177734375,-22.02606201171875,3.0975341796875,GOOD
2021-11-06 02:10:12.100790,-0.97216796875,-0.125,1.689453125,-7.75909423828125,-8.82720947265625,3.387451171875,GOOD
2021-11-06 02:10:12.505688,-0.97216796875,-0.125,1.689453125,-7.75909423828125,-8.82720947265625,3.387451171875,GOOD
2021-11-06 02:10:12.910682,-0.77392578125,-0.00732421875,1.8447265625,8.30841064453125,-2.66265869140625,1.82342529296875,GOOD
2021-11-06 02:10:13.270687,-0.77392578125,-0.00732421875,1.8447265625,8.30841064453125,-2.66265869140625,1.82342529296875,BAD
2021-11-06 02:10:13.630629,-0.77392578125,-0.00732421875,1.8447265625,8.30841064453125,-2.66265869140625,1.82342529296875,BAD
2021-11-06 02:10:14.035705,-0.79443359375,0.01123046875,1.79248046875,1.6326904296875,1.39617919921875,0.274658203125,BAD
2021-11-06 02:10:14.395766,-0.79443359375,0.01123046875,1.79248046875,1.6326904296875,1.39617919921875,0.274658203125,BAD
2021-11-06 02:10:14.755645,-0.79443359375,0.01123046875,1.79248046875,1.6326904296875,1.39617919921875,0.274658203125,BAD
2021-11-06 02:10:15.115636,-0.78076171875,0.0029296875,1.80908203125,1.52587890625,1.21307373046875,1.19781494140625,BAD
2021-11-06 02:10:15.475676,-0.78076171875,0.0029296875,1.80908203125,1.52587890625,1.21307373046875,1.19781494140625,BAD
2021-11-06 02:10:15.835555,-0.78076171875,0.0029296875,1.80908203125,2.2430419921875,0.05340576171875,-0.06103515625,BAD
2021-11-06 02:10:16.195573,-0.7841796875,0.04443359375,1.80078125,2.2430419921875,0.05340576171875,-0.06103515625,BAD
2021-11-06 02:10:16.555559,-0.7841796875,0.04443359375,1.80078125,2.2430419921875,0.05340576171875,-0.06103515625,BAD
2021-11-06 02:10:16.915566,-0.80859375,0.0244140625,1.79150390625,2.15911865234375,3.05938720703125,0.77056884765625,BAD
2021-11-06 02:10:17.275514,-0.80859375,0.0244140625,1.79150390625,2.15911865234375,3.05938720703125,0.77056884765625,BAD
2021-11-06 02:10:17.635483,-0.80859375,0.0244140625,1.79150390625,2.15911865234375,3.05938720703125,0.77056884765625,BAD
2021-11-06 02:10:17.995538,-0.7998046875,-0.0439453125,1.79052734375,0.26702880859375,1.31988525390625,2.37274169921875,BAD
2021-11-06 02:10:18.355492,-0.7998046875,-0.0439453125,1.79052734375,0.26702880859375,1.31988525390625,2.37274169921875,BAD
2021-11-06 02:10:18.715428,-0.7998046875,-0.0439453125,1.79052734375,0.26702880859375,1.31988525390625,2.37274169921875,BAD
2021-11-06 02:10:19.075428,-0.76318359375,-0.0390625,1.8125,0.885009765625,0.244140625,1.86920166015625,BAD
2021-11-06 02:10:19.480403,-0.76318359375,-0.0390625,1.8125,0.885009765625,0.244140625,1.86920166015625,BAD
2021-11-06 02:10:19.840492,-0.76318359375,-0.0390625,1.8125,0.75531005859375,1.38092041015625,1.5106201171875,BAD
2021-11-06 02:10:20.200422,-0.79296875,-0.05859375,1.79541015625,0.75531005859375,1.38092041015625,1.5106201171875,BAD
2021-11-06 02:10:20.560383,-0.79296875,-0.05859375,1.79541015625,0.75531005859375,1.38092041015625,1.5106201171875,BAD
2021-11-06 02:10:20.920367,-0.79833984375,-0.05908203125,1.810546875,1.83868408203125,0.152587890625,1.0223388671875,BAD
2021-11-06 02:10:21.280494,-0.79833984375,-0.05908203125,1.810546875,1.83868408203125,0.152587890625,1.0223388671875,BAD
2021-11-06 02:10:21.640427,-0.79833984375,-0.05908203125,1.810546875,1.83868408203125,0.152587890625,1.0223388671875,BAD
2021-11-06 02:10:22.000319,-0.7783203125,-0.03955078125,1.8154296875,3.16619873046875,4.2266845703125,4.486083984375,BAD
2021-11-06 02:10:22.360381,-0.7783203125,-0.03955078125,1.8154296875,3.16619873046875,4.2266845703125,4.486083984375,BAD
2021-11-06 02:10:22.720287,-0.7783203125,-0.03955078125,1.8154296875,3.16619873046875,4.2266845703125,4.486083984375,BAD
2021-11-06 02:10:23.080349,-0.80322265625,-0.029296875,1.79150390625,0.84686279296875,0.66375732421875,1.27410888671875,BAD
2021-11-06 02:10:23.440249,-0.80322265625,-0.029296875,1.79150390625,0.84686279296875,0.66375732421875,1.27410888671875,BAD
2021-11-06 02:10:23.800273,-0.80322265625,-0.029296875,1.79150390625,1.50299072265625,0.72479248046875,0.60272216796875,BAD
2021-11-06 02:10:24.160298,-0.78759765625,-0.07666015625,1.78515625,1.50299072265625,0.72479248046875,0.60272216796875,BAD
2021-11-06 02:10:24.520305,-0.78759765625,-0.07666015625,1.78515625,1.50299072265625,0.72479248046875,0.60272216796875,BAD
2021-11-06 02:10:24.880291,-0.775390625,-0.072265625,1.81298828125,1.861572265625,0.79345703125,1.0528564453125,BAD
2021-11-06 02:10:25.240355,-0.775390625,-0.072265625,1.81298828125,1.861572265625,0.79345703125,1.0528564453125,BAD
2021-11-06 02:10:25.600213,-0.775390625,-0.072265625,1.81298828125,1.861572265625,0.79345703125,1.0528564453125,BAD
2021-11-06 02:10:25.960223,-0.78662109375,-0.07421875,1.794921875,1.77764892578125,1.10626220703125,0.42724609375,BAD
2021-11-06 02:10:26.320174,-0.78662109375,-0.07421875,1.794921875,1.77764892578125,1.10626220703125,0.42724609375,BAD
2021-11-06 02:10:26.680289,-0.78662109375,-0.07421875,1.794921875,1.77764892578125,1.10626220703125,0.42724609375,BAD
2021-11-06 02:10:27.040157,-0.77978515625,-0.0771484375,1.82177734375,-2.14385986328125,5.05828857421875,2.3956298828125,BAD
2021-11-06 02:10:27.400131,-0.77978515625,-0.0771484375,1.82177734375,-2.14385986328125,5.05828857421875,2.3956298828125,BAD
2021-11-06 02:10:27.760129,-0.77978515625,-0.0771484375,1.82177734375,-2.14385986328125,5.05828857421875,2.3956298828125,BAD
2021-11-06 02:10:28.120115,-0.89599609375,-0.23486328125,1.70703125,1.64031982421875,2.25830078125,-1.28936767578125,BAD
2021-11-06 02:10:28.480240,-0.89599609375,-0.23486328125,1.70703125,1.64031982421875,2.25830078125,-1.28936767578125,BAD
2021-11-06 02:10:28.840126,-0.89599609375,-0.23486328125,1.70703125,1.02996826171875,1.7852783203125,0.5950927734375,BAD
2021-11-06 02:10:29.200123,-0.8515625,-0.18994140625,1.76708984375,1.02996826171875,1.7852783203125,0.5950927734375,BAD
2021-11-06 02:10:29.560082,-0.8515625,-0.18994140625,1.76708984375,1.02996826171875,1.7852783203125,0.5950927734375,BAD
2021-11-06 02:10:29.920045,-0.85595703125,-0.19775390625,1.75830078125,2.05230712890625,1.678466796875,0.14495849609375,BAD
2021-11-06 02:10:30.280122,-0.85595703125,-0.19775390625,1.75830078125,2.05230712890625,1.678466796875,0.14495849609375,BAD
2021-11-06 02:10:30.640063,-0.85595703125,-0.19775390625,1.75830078125,2.05230712890625,1.678466796875,0.14495849609375,BAD
2021-11-06 02:10:31.045101,-0.85595703125,-0.17431640625,1.77099609375,2.2430419921875,1.0833740234375,2.17437744140625,BAD
2021-11-06 02:10:31.405132,-0.85595703125,-0.17431640625,1.77099609375,2.2430419921875,1.0833740234375,2.17437744140625,BAD
2021-11-06 02:10:31.765009,-0.85595703125,-0.17431640625,1.77099609375,2.2430419921875,1.0833740234375,2.17437744140625,BAD
2021-11-06 02:10:32.124996,-0.869140625,-0.17431640625,1.75146484375,1.56402587890625,0.6866455078125,0.8544921875,BAD
2021-11-06 02:10:32.484980,-0.869140625,-0.17431640625,1.75146484375,1.56402587890625,0.6866455078125,0.8544921875,BAD
2021-11-06 02:10:32.844984,-0.869140625,-0.17431640625,1.75146484375,-0.6866455078125,0.06103515625,1.77001953125,BAD
2021-11-06 02:10:33.204962,-0.86669921875,-0.17431640625,1.73779296875,-0.6866455078125,0.06103515625,1.77001953125,BAD
2021-11-06 02:10:33.564910,-0.86669921875,-0.17431640625,1.73779296875,-0.6866455078125,0.06103515625,1.77001953125,BAD
2021-11-06 02:10:33.969978,-0.8125,-0.12841796875,1.7900390625,0.3662109375,0.09918212890625,2.78472900390625,BAD
2021-11-06 02:10:34.329995,-0.8125,-0.12841796875,1.7900390625,0.3662109375,0.09918212890625,2.78472900390625,BAD
2021-11-06 02:10:34.689915,-0.8125,-0.12841796875,1.7900390625,0.3662109375,0.09918212890625,2.78472900390625,BAD
2021-11-06 02:10:35.049999,-0.81201171875,-0.12939453125,1.7822265625,3.021240234375,-0.06103515625,3.7689208984375,BAD
2021-11-06 02:10:35.409923,-0.81201171875,-0.12939453125,1.7822265625,3.021240234375,-0.06103515625,3.7689208984375,BAD
2021-11-06 02:10:35.814873,-0.81201171875,-0.12939453125,1.7822265625,3.021240234375,-0.06103515625,3.7689208984375,BAD
2021-11-06 02:10:36.174884,-0.8271484375,-0.13623046875,1.7783203125,1.24359130859375,1.5411376953125,1.434326171875,BAD
2021-11-06 02:10:36.534819,-0.8271484375,-0.13623046875,1.7783203125,1.24359130859375,1.5411376953125,1.434326171875,BAD
2021-11-06 02:10:36.894917,-0.787109375,-0.18310546875,1.78466796875,1.89208984375,-0.396728515625,3.0517578125,BAD
2021-11-06 02:10:37.299828,-0.787109375,-0.18310546875,1.78466796875,1.89208984375,-0.396728515625,3.0517578125,BAD
2021-11-06 02:10:37.659894,-0.787109375,-0.18310546875,1.78466796875,1.89208984375,-0.396728515625,3.0517578125,BAD
2021-11-06 02:10:38.020293,-0.8154296875,-0.10302734375,1.78662109375,-0.5645751953125,3.57818603515625,1.15203857421875,BAD
2021-11-06 02:10:38.380396,-0.8154296875,-0.10302734375,1.78662109375,-0.5645751953125,3.57818603515625,1.15203857421875,BAD
2021-11-06 02:10:38.739753,-0.8154296875,-0.10302734375,1.78662109375,-0.5645751953125,3.57818603515625,1.15203857421875,BAD
2021-11-06 02:10:39.100266,-0.77685546875,-0.13134765625,1.8037109375,1.251220703125,1.93023681640625,1.13677978515625,BAD
2021-11-06 02:10:39.459775,-0.77685546875,-0.13134765625,1.8037109375,1.251220703125,1.93023681640625,1.13677978515625,BAD
2021-11-06 02:10:39.864782,-0.77685546875,-0.13134765625,1.8037109375,0.92315673828125,1.06048583984375,2.15911865234375,BAD
2021-11-06 02:10:40.225255,-0.7783203125,-0.13623046875,1.818359375,0.92315673828125,1.06048583984375,2.15911865234375,BAD
2021-11-06 02:10:40.584698,-0.7783203125,-0.13623046875,1.818359375,0.92315673828125,1.06048583984375,2.15911865234375,BAD
2021-11-06 02:10:40.944737,-0.8486328125,-0.11962890625,1.73681640625,1.77001953125,3.89862060546875,-0.32806396484375,BAD
2021-11-06 02:10:41.349699,-0.8486328125,-0.11962890625,1.73681640625,1.77001953125,3.89862060546875,-0.32806396484375,BAD
2021-11-06 02:10:41.709711,-0.8486328125,-0.11962890625,1.73681640625,1.77001953125,3.89862060546875,-0.32806396484375,BAD
2021-11-06 02:10:42.069751,-0.79833984375,-0.1181640625,1.80810546875,2.0294189453125,0.54931640625,0.98419189453125,BAD
2021-11-06 02:10:42.429745,-0.79833984375,-0.1181640625,1.80810546875,2.0294189453125,0.54931640625,0.98419189453125,BAD
2021-11-06 02:10:42.789665,-0.79833984375,-0.1181640625,1.80810546875,1.79290771484375,1.38092041015625,1.83868408203125,BAD
2021-11-06 02:10:43.194694,-0.80078125,-0.12060546875,1.8076171875,1.79290771484375,1.38092041015625,1.83868408203125,BAD
2021-11-06 02:10:43.554526,-0.80078125,-0.12060546875,1.8076171875,1.79290771484375,1.38092041015625,1.83868408203125,BAD
2021-11-06 02:10:43.914585,-0.869140625,-0.05078125,1.7724609375,-2.227783203125,-0.96893310546875,-2.25067138671875,BAD
2021-11-06 02:10:44.274635,-0.869140625,-0.05078125,1.7724609375,-2.227783203125,-0.96893310546875,-2.25067138671875,BAD
2021-11-06 02:10:44.634626,-0.869140625,-0.05078125,1.7724609375,-2.227783203125,-0.96893310546875,-2.25067138671875,BAD
2021-11-06 02:10:44.994636,-0.75390625,-0.09423828125,1.83544921875,0.16021728515625,-2.4261474609375,-0.8392333984375,BAD
2021-11-06 02:10:45.354586,-0.75390625,-0.09423828125,1.83544921875,0.16021728515625,-2.4261474609375,-0.8392333984375,BAD
2021-11-06 02:10:45.759662,-0.75390625,-0.09423828125,1.83544921875,0.16021728515625,-2.4261474609375,-0.8392333984375,BAD
2021-11-06 02:10:46.119538,-0.73779296875,-0.15380859375,1.82177734375,1.77764892578125,1.739501953125,-0.885009765625,BAD
2021-11-06 02:10:46.479526,-0.73779296875,-0.15380859375,1.82177734375,1.77764892578125,1.739501953125,-0.885009765625,BAD
2021-11-06 02:10:46.839527,-0.73779296875,-0.15380859375,1.82177734375,1.09100341796875,-1.2969970703125,-0.34332275390625,BAD
2021-11-06 02:10:47.199557,-0.673828125,-0.14404296875,1.84912109375,1.09100341796875,-1.2969970703125,-0.34332275390625,BAD
2021-11-06 02:10:47.559538,-0.673828125,-0.14404296875,1.84912109375,1.09100341796875,-1.2969970703125,-0.34332275390625,BAD
2021-11-06 02:10:47.919436,-0.61669921875,-0.17041015625,1.84912109375,1.41143798828125,1.068115234375,1.13677978515625,BAD
2021-11-06 02:10:48.279429,-0.61669921875,-0.17041015625,1.84912109375,1.41143798828125,1.068115234375,1.13677978515625,BAD
2021-11-06 02:10:48.684449,-0.61669921875,-0.17041015625,1.84912109375,1.41143798828125,1.068115234375,1.13677978515625,BAD
2021-11-06 02:10:49.044448,-0.57275390625,-0.1611328125,1.87451171875,0.9613037109375,0.9765625,1.0833740234375,BAD
2021-11-06 02:10:49.449444,-0.57275390625,-0.1611328125,1.87451171875,0.9613037109375,0.9765625,1.0833740234375,BAD
2021-11-06 02:10:49.809392,-0.57275390625,-0.1611328125,1.87451171875,-1.22833251953125,1.12152099609375,-0.80108642578125,BAD
2021-11-06 02:10:50.169360,-0.60595703125,-0.14453125,1.85400390625,-1.22833251953125,1.12152099609375,-0.80108642578125,BAD
2021-11-06 02:10:50.529374,-0.60595703125,-0.14453125,1.85400390625,-1.22833251953125,1.12152099609375,-0.80108642578125,BAD
2021-11-06 02:10:50.889419,-0.5869140625,-0.16064453125,1.86376953125,0.93841552734375,-0.1678466796875,-0.8087158203125,BAD
2021-11-06 02:10:51.249411,-0.5869140625,-0.16064453125,1.86376953125,0.93841552734375,-0.1678466796875,-0.8087158203125,BAD
2021-11-06 02:10:51.699360,-0.5869140625,-0.16064453125,1.86376953125,0.93841552734375,-0.1678466796875,-0.8087158203125,BAD
2021-11-06 02:10:52.059376,-0.55908203125,-0.17919921875,1.890625,1.51824951171875,1.51824951171875,0.48065185546875,BAD
2021-11-06 02:10:52.419354,-0.55908203125,-0.17919921875,1.890625,1.51824951171875,1.51824951171875,0.48065185546875,BAD
2021-11-06 02:10:52.779335,-0.55908203125,-0.17919921875,1.890625,1.495361328125,0.69427490234375,1.25885009765625,BAD
2021-11-06 02:10:53.139361,-0.5595703125,-0.1728515625,1.89208984375,1.495361328125,0.69427490234375,1.25885009765625,BAD
2021-11-06 02:10:53.544379,-0.5595703125,-0.1728515625,1.89208984375,1.495361328125,0.69427490234375,1.25885009765625,BAD
2021-11-06 02:10:53.949273,-0.58544921875,-0.21923828125,1.8671875,1.8157958984375,1.3275146484375,5.157470703125,BAD
2021-11-06 02:10:54.309309,-0.58544921875,-0.21923828125,1.8671875,1.8157958984375,1.3275146484375,5.157470703125,BAD
2021-11-06 02:10:54.714253,-0.58544921875,-0.21923828125,1.8671875,1.8157958984375,1.3275146484375,5.157470703125,BAD
2021-11-06 02:10:55.074307,-0.65478515625,-0.19091796875,1.8525390625,1.06048583984375,5.859375,1.129150390625,BAD
2021-11-06 02:10:55.434271,-0.65478515625,-0.19091796875,1.8525390625,1.06048583984375,5.859375,1.129150390625,BAD
2021-11-06 02:10:55.794203,-0.65478515625,-0.19091796875,1.8525390625,2.25067138671875,2.7618408203125,-0.22125244140625,BAD
2021-11-06 02:10:56.199167,-0.62841796875,-0.16162109375,1.85107421875,2.25067138671875,2.7618408203125,-0.22125244140625,BAD
2021-11-06 02:10:56.559231,-0.62841796875,-0.16162109375,1.85107421875,2.25067138671875,2.7618408203125,-0.22125244140625,BAD
2021-11-06 02:10:56.919181,-0.630859375,-0.16796875,1.8466796875,1.41143798828125,1.5716552734375,0.81634521484375,BAD
2021-11-06 02:10:57.279324,-0.630859375,-0.16796875,1.8466796875,1.41143798828125,1.5716552734375,0.81634521484375,BAD
2021-11-06 02:10:57.684236,-0.630859375,-0.16796875,1.8466796875,1.41143798828125,1.5716552734375,0.81634521484375,BAD
2021-11-06 02:10:58.044139,-0.62646484375,-0.18115234375,1.86328125,1.74713134765625,0.34332275390625,0.43487548828125,BAD
2021-11-06 02:10:58.404145,-0.62646484375,-0.18115234375,1.86328125,1.74713134765625,0.34332275390625,0.43487548828125,BAD
2021-11-06 02:10:58.809204,-0.62646484375,-0.18115234375,1.86328125,2.13623046875,0.87738037109375,0.52642822265625,BAD
2021-11-06 02:10:59.169061,-0.6123046875,-0.17041015625,1.85302734375,2.13623046875,0.87738037109375,0.52642822265625,BAD
2021-11-06 02:10:59.529168,-0.6123046875,-0.17041015625,1.85302734375,2.13623046875,0.87738037109375,0.52642822265625,BAD
2021-11-06 02:10:59.889120,-0.634765625,-0.1484375,1.8857421875,2.90679931640625,0.18310546875,0.92315673828125,BAD
2021-11-06 02:11:00.294099,-0.634765625,-0.1484375,1.8857421875,2.90679931640625,0.18310546875,0.92315673828125,BAD
2021-11-06 02:11:00.699099,-0.634765625,-0.1484375,1.8857421875,2.90679931640625,0.18310546875,0.92315673828125,BAD
2021-11-06 02:11:01.059035,-0.63134765625,-0.1494140625,1.8642578125,1.31988525390625,1.48773193359375,0.80108642578125,BAD
2021-11-06 02:11:01.419021,-0.63134765625,-0.1494140625,1.8642578125,1.31988525390625,1.48773193359375,0.80108642578125,BAD
2021-11-06 02:11:01.779085,-0.63134765625,-0.1494140625,1.8642578125,1.434326171875,1.2664794921875,0.57220458984375,BAD
2021-11-06 02:11:02.139009,-0.64208984375,-0.15771484375,1.85693359375,1.434326171875,1.2664794921875,0.57220458984375,BAD
2021-11-06 02:11:02.498979,-0.64208984375,-0.15771484375,1.85693359375,1.434326171875,1.2664794921875,0.57220458984375,BAD
2021-11-06 02:11:02.903983,-0.650390625,-0.14892578125,1.86328125,1.64031982421875,0.83160400390625,1.03759765625,BAD
2021-11-06 02:11:03.264060,-0.650390625,-0.14892578125,1.86328125,1.64031982421875,0.83160400390625,1.03759765625,BAD
2021-11-06 02:11:03.624045,-0.650390625,-0.14892578125,1.86328125,1.64031982421875,0.83160400390625,1.03759765625,BAD
2021-11-06 02:11:03.984024,-0.6474609375,-0.16357421875,1.8583984375,0.2288818359375,1.73187255859375,0.1220703125,BAD
2021-11-06 02:11:04.343953,-0.6474609375,-0.16357421875,1.8583984375,0.2288818359375,1.73187255859375,0.1220703125,BAD
2021-11-06 02:11:04.703930,-0.6474609375,-0.16357421875,1.8583984375,0.2288818359375,1.73187255859375,0.1220703125,BAD
2021-11-06 02:11:05.064016,-0.9267578125,-0.08251953125,1.6708984375,-3.45611572265625,19.72198486328125,20.80535888671875,BAD
2021-11-06 02:11:05.423900,-0.9267578125,-0.08251953125,1.6708984375,-3.45611572265625,19.72198486328125,20.80535888671875,BAD
2021-11-06 02:11:05.783898,-0.9267578125,-0.08251953125,1.6708984375,26.6876220703125,18.890380859375,-7.99560546875,BAD
2021-11-06 02:11:06.143912,-1.119140625,0.0771484375,1.6259765625,26.6876220703125,18.890380859375,-7.99560546875,BAD
2021-11-06 02:11:06.503937,-1.119140625,0.0771484375,1.6259765625,26.6876220703125,18.890380859375,-7.99560546875,BAD
2021-11-06 02:11:06.863899,-1.7041015625,0.04052734375,0.95458984375,4.3792724609375,15.46478271484375,1.3580322265625,BAD
2021-11-06 02:11:07.268842,-1.7041015625,0.04052734375,0.95458984375,4.3792724609375,15.46478271484375,1.3580322265625,BAD
2021-11-06 02:11:07.718885,-1.7041015625,0.04052734375,0.95458984375,4.3792724609375,15.46478271484375,1.3580322265625,BAD
2021-11-06 02:11:08.078848,-1.73681640625,0.2119140625,0.88623046875,0.57220458984375,-0.54168701171875,5.157470703125,BAD
2021-11-06 02:11:08.438872,-1.73681640625,0.2119140625,0.88623046875,0.57220458984375,-0.54168701171875,5.157470703125,GOOD
2021-11-06 02:11:08.798991,-1.73681640625,0.2119140625,0.88623046875,-2.471923828125,-1.19781494140625,3.6163330078125,GOOD
2021-11-06 02:11:09.203792,-1.66015625,0.1513671875,1.00830078125,-2.471923828125,-1.19781494140625,3.6163330078125,GOOD
2021-11-06 02:11:09.563869,-1.66015625,0.1513671875,1.00830078125,-2.471923828125,-1.19781494140625,3.6163330078125,GOOD
2021-11-06 02:11:09.923775,-1.60791015625,0.205078125,1.103515625,1.52587890625,-2.43377685546875,-1.9378662109375,GOOD
2021-11-06 02:11:10.283749,-1.60791015625,0.205078125,1.103515625,1.52587890625,-2.43377685546875,-1.9378662109375,GOOD
2021-11-06 02:11:10.689250,-1.60791015625,0.205078125,1.103515625,1.52587890625,-2.43377685546875,-1.9378662109375,GOOD
2021-11-06 02:11:11.094322,-1.54296875,0.14453125,1.1806640625,1.42669677734375,-0.23651123046875,0.34332275390625,GOOD
2021-11-06 02:11:11.453782,-1.54296875,0.14453125,1.1806640625,1.42669677734375,-0.23651123046875,0.34332275390625,GOOD
2021-11-06 02:11:11.858795,-1.54296875,0.14453125,1.1806640625,2.57110595703125,11.10076904296875,1.678466796875,GOOD
2021-11-06 02:11:12.218759,-1.57470703125,0.17529296875,1.12841796875,2.57110595703125,11.10076904296875,1.678466796875,GOOD
2021-11-06 02:11:12.624242,-1.57470703125,0.17529296875,1.12841796875,2.57110595703125,11.10076904296875,1.678466796875,GOOD
2021-11-06 02:11:12.983663,-1.66015625,0.1474609375,1.00048828125,2.2735595703125,-0.244140625,0.11444091796875,GOOD
2021-11-06 02:11:13.388711,-1.66015625,0.1474609375,1.00048828125,2.2735595703125,-0.244140625,0.11444091796875,GOOD
2021-11-06 02:11:13.748644,-1.66015625,0.1474609375,1.00048828125,2.2735595703125,-0.244140625,0.11444091796875,GOOD
2021-11-06 02:11:14.153680,-1.6298828125,0.142578125,1.05419921875,-0.091552734375,0.1068115234375,1.80816650390625,GOOD
2021-11-06 02:11:14.513739,-1.6298828125,0.142578125,1.05419921875,-0.091552734375,0.1068115234375,1.80816650390625,GOOD
2021-11-06 02:11:14.919156,-1.59033203125,0.15625,1.10546875,-1.0833740234375,-1.89971923828125,2.13623046875,GOOD
2021-11-06 02:11:15.323617,-1.59033203125,0.15625,1.10546875,-1.0833740234375,-1.89971923828125,2.13623046875,GOOD
2021-11-06 02:11:15.683665,-1.59033203125,0.15625,1.10546875,-1.0833740234375,-1.89971923828125,2.13623046875,GOOD
2021-11-06 02:11:16.089145,-1.5771484375,0.11962890625,1.14892578125,1.85394287109375,1.21307373046875,0.1220703125,GOOD
2021-11-06 02:11:16.538604,-1.5771484375,0.11962890625,1.14892578125,1.85394287109375,1.21307373046875,0.1220703125,GOOD
2021-11-06 02:11:16.898693,-1.59912109375,0.18359375,1.0771484375,3.7078857421875,5.0506591796875,1.35040283203125,GOOD
2021-11-06 02:11:17.258545,-1.59912109375,0.18359375,1.0771484375,3.7078857421875,5.0506591796875,1.35040283203125,GOOD
2021-11-06 02:11:17.709049,-1.59912109375,0.18359375,1.0771484375,3.7078857421875,5.0506591796875,1.35040283203125,GOOD
2021-11-06 02:11:18.068498,-1.6884765625,0.140625,0.96240234375,1.861572265625,2.44903564453125,1.7852783203125,GOOD
2021-11-06 02:11:18.428515,-1.6884765625,0.140625,0.96240234375,1.861572265625,2.44903564453125,1.7852783203125,GOOD
2021-11-06 02:11:18.788519,-1.6884765625,0.140625,0.96240234375,2.32696533203125,3.76129150390625,0.9307861328125,GOOD
2021-11-06 02:11:19.148539,-1.701171875,0.1904296875,0.9560546875,2.32696533203125,3.76129150390625,0.9307861328125,GOOD
2021-11-06 02:11:19.508658,-1.701171875,0.1904296875,0.9560546875,2.32696533203125,3.76129150390625,0.9307861328125,GOOD
2021-11-06 02:11:19.868548,-1.6953125,0.17626953125,0.953125,1.50299072265625,-0.06103515625,4.61578369140625,GOOD
2021-11-06 02:11:20.228510,-1.6953125,0.17626953125,0.953125,1.50299072265625,-0.06103515625,4.61578369140625,GOOD
2021-11-06 02:11:20.588531,-1.6953125,0.17626953125,0.953125,1.50299072265625,-0.06103515625,4.61578369140625,GOOD
2021-11-06 02:11:20.993419,-1.6591796875,0.1943359375,0.9970703125,2.02178955078125,0.732421875,0.42724609375,GOOD
2021-11-06 02:11:21.353496,-1.6591796875,0.1943359375,0.9970703125,2.02178955078125,0.732421875,0.42724609375,GOOD
2021-11-06 02:11:21.713486,-1.6591796875,0.1943359375,0.9970703125,2.02178955078125,0.732421875,0.42724609375,GOOD
2021-11-06 02:11:22.073485,-1.64599609375,0.1943359375,1.00732421875,1.86920166015625,0.14495849609375,0.77056884765625,GOOD
2021-11-06 02:11:22.433424,-1.64599609375,0.1943359375,1.00732421875,1.86920166015625,0.14495849609375,0.77056884765625,GOOD
2021-11-06 02:11:22.793401,-1.64599609375,0.1943359375,1.00732421875,1.2969970703125,1.41143798828125,1.0223388671875,GOOD
2021-11-06 02:11:23.153422,-1.642578125,0.20849609375,1.0185546875,1.2969970703125,1.41143798828125,1.0223388671875,GOOD
2021-11-06 02:11:23.513422,-1.642578125,0.20849609375,1.0185546875,1.2969970703125,1.41143798828125,1.0223388671875,GOOD
2021-11-06 02:11:23.873358,-1.6279296875,0.19677734375,1.037109375,1.91497802734375,0.7781982421875,1.06048583984375,GOOD
2021-11-06 02:11:24.233381,-1.6279296875,0.19677734375,1.037109375,1.91497802734375,0.7781982421875,1.06048583984375,GOOD
2021-11-06 02:11:24.593423,-1.6279296875,0.19677734375,1.037109375,1.91497802734375,0.7781982421875,1.06048583984375,GOOD
2021-11-06 02:11:24.953295,-1.63134765625,0.19677734375,1.05859375,1.53350830078125,2.227783203125,1.30462646484375,GOOD
2021-11-06 02:11:25.313539,-1.63134765625,0.19677734375,1.05859375,1.53350830078125,2.227783203125,1.30462646484375,GOOD
2021-11-06 02:11:25.673366,-1.63134765625,0.19677734375,1.05859375,1.53350830078125,2.227783203125,1.30462646484375,GOOD
2021-11-06 02:11:26.033284,-1.60986328125,0.20166015625,1.08154296875,1.8463134765625,0.6561279296875,0.92315673828125,GOOD
2021-11-06 02:11:26.393251,-1.60986328125,0.20166015625,1.08154296875,1.8463134765625,0.6561279296875,0.92315673828125,GOOD
2021-11-06 02:11:26.753247,-1.60986328125,0.20166015625,1.08154296875,1.8463134765625,0.6561279296875,0.92315673828125,GOOD
2021-11-06 02:11:27.113253,-1.603515625,0.1953125,1.08740234375,1.89208984375,0.80108642578125,0.79345703125,GOOD
2021-11-06 02:11:27.518249,-1.603515625,0.1953125,1.08740234375,1.89208984375,0.80108642578125,0.79345703125,GOOD
2021-11-06 02:11:27.878288,-1.6103515625,0.193359375,1.09130859375,1.64031982421875,0.823974609375,0.9307861328125,GOOD
2021-11-06 02:11:28.238220,-1.6103515625,0.193359375,1.09130859375,1.64031982421875,0.823974609375,0.9307861328125,GOOD
2021-11-06 02:11:28.598236,-1.6103515625,0.193359375,1.09130859375,1.64031982421875,0.823974609375,0.9307861328125,GOOD
2021-11-06 02:11:28.958284,-1.6015625,0.18359375,1.10693359375,1.4801025390625,0.72479248046875,0.95367431640625,GOOD
2021-11-06 02:11:29.318248,-1.6015625,0.18359375,1.10693359375,1.4801025390625,0.72479248046875,0.95367431640625,GOOD
2021-11-06 02:11:29.678193,-1.6015625,0.18359375,1.10693359375,1.4801025390625,0.72479248046875,0.95367431640625,GOOD
2021-11-06 02:11:30.038171,-1.59423828125,0.19140625,1.1025390625,1.59454345703125,1.7852783203125,1.25885009765625,GOOD
2021-11-06 02:11:30.398195,-1.59423828125,0.19140625,1.1025390625,1.59454345703125,1.7852783203125,1.25885009765625,GOOD
2021-11-06 02:11:30.803137,-1.59423828125,0.19140625,1.1025390625,1.617431640625,0.7781982421875,0.74005126953125,GOOD
2021-11-06 02:11:31.163295,-1.59130859375,0.1875,1.1162109375,1.617431640625,0.7781982421875,0.74005126953125,GOOD
2021-11-06 02:11:31.523120,-1.59130859375,0.1875,1.1162109375,1.617431640625,0.7781982421875,0.74005126953125,GOOD
2021-11-06 02:11:31.883100,-1.59326171875,0.19482421875,1.1103515625,1.5716552734375,1.19781494140625,0.96893310546875,GOOD
2021-11-06 02:11:32.243179,-1.59326171875,0.19482421875,1.1103515625,1.5716552734375,1.19781494140625,0.96893310546875,GOOD
2021-11-06 02:11:32.603112,-1.59326171875,0.19482421875,1.1103515625,1.5716552734375,1.19781494140625,0.96893310546875,GOOD
2021-11-06 02:11:32.963179,-1.58984375,0.18408203125,1.13525390625,1.39617919921875,1.04522705078125,0.6561279296875,GOOD
2021-11-06 02:11:33.323077,-1.58984375,0.18408203125,1.13525390625,1.39617919921875,1.04522705078125,0.6561279296875,GOOD
2021-11-06 02:11:33.683135,-1.58984375,0.18408203125,1.13525390625,1.39617919921875,1.04522705078125,0.6561279296875,GOOD
2021-11-06 02:11:34.043040,-1.54736328125,0.15380859375,1.18212890625,2.20489501953125,-2.54058837890625,0.41961669921875,GOOD
2021-11-06 02:11:34.403047,-1.54736328125,0.15380859375,1.18212890625,2.20489501953125,-2.54058837890625,0.41961669921875,GOOD
2021-11-06 02:11:34.763099,-1.54736328125,0.15380859375,1.18212890625,2.20489501953125,-2.54058837890625,0.41961669921875,GOOD
2021-11-06 02:11:35.123021,-1.5478515625,0.15869140625,1.20703125,0.3509521484375,1.953125,2.105712890625,GOOD
2021-11-06 02:11:35.482998,-1.5478515625,0.15869140625,1.20703125,0.3509521484375,1.953125,2.105712890625,GOOD
2021-11-06 02:11:35.843057,-1.5478515625,0.15869140625,1.20703125,1.79290771484375,1.922607421875,-0.00762939453125,GOOD
2021-11-06 02:11:36.202980,-1.53125,0.16162109375,1.2109375,1.79290771484375,1.922607421875,-0.00762939453125,GOOD
2021-11-06 02:11:36.563002,-1.53125,0.16162109375,1.2109375,1.79290771484375,1.922607421875,-0.00762939453125,GOOD
2021-11-06 02:11:36.922988,-1.5439453125,0.16357421875,1.1708984375,2.166748046875,2.26593017578125,0.79345703125,GOOD
2021-11-06 02:11:37.282991,-1.5439453125,0.16357421875,1.1708984375,2.166748046875,2.26593017578125,0.79345703125,GOOD
2021-11-06 02:11:37.643051,-1.5439453125,0.16357421875,1.1708984375,2.166748046875,2.26593017578125,0.79345703125,GOOD
2021-11-06 02:11:38.002921,-1.54345703125,0.15869140625,1.18798828125,1.06048583984375,1.434326171875,0.77056884765625,GOOD
2021-11-06 02:11:38.363111,-1.54345703125,0.15869140625,1.18798828125,1.06048583984375,1.434326171875,0.77056884765625,GOOD
2021-11-06 02:11:38.722886,-1.54345703125,0.15869140625,1.18798828125,1.06048583984375,1.434326171875,0.77056884765625,GOOD
2021-11-06 02:11:39.082910,-1.5361328125,0.15478515625,1.19189453125,1.89971923828125,0.95367431640625,1.38092041015625,GOOD
2021-11-06 02:11:39.442883,-1.5361328125,0.15478515625,1.19189453125,1.89971923828125,0.95367431640625,1.38092041015625,GOOD
2021-11-06 02:11:39.802894,-1.5361328125,0.15478515625,1.19189453125,1.800537109375,1.4801025390625,0.87738037109375,GOOD
2021-11-06 02:11:40.162952,-1.5361328125,0.15234375,1.20166015625,1.800537109375,1.4801025390625,0.87738037109375,GOOD
2021-11-06 02:11:40.522906,-1.5361328125,0.15234375,1.20166015625,1.800537109375,1.4801025390625,0.87738037109375,GOOD
2021-11-06 02:11:40.882937,-1.53662109375,0.150390625,1.20556640625,1.251220703125,1.41143798828125,1.2359619140625,GOOD
2021-11-06 02:11:41.242910,-1.53662109375,0.150390625,1.20556640625,1.251220703125,1.41143798828125,1.2359619140625,GOOD
2021-11-06 02:11:41.602817,-1.53662109375,0.150390625,1.20556640625,1.251220703125,1.41143798828125,1.2359619140625,GOOD
2021-11-06 02:11:41.962869,-1.53564453125,0.1552734375,1.20654296875,1.86920166015625,1.2969970703125,0.9613037109375,GOOD
2021-11-06 02:11:42.322830,-1.53564453125,0.1552734375,1.20654296875,1.86920166015625,1.2969970703125,0.9613037109375,GOOD
2021-11-06 02:11:42.682859,-1.53564453125,0.1552734375,1.20654296875,1.86920166015625,1.2969970703125,0.9613037109375,GOOD
2021-11-06 02:11:43.042799,-1.521484375,0.14599609375,1.21044921875,1.31988525390625,1.40380859375,1.24359130859375,GOOD
2021-11-06 02:11:43.402790,-1.521484375,0.14599609375,1.21044921875,1.31988525390625,1.40380859375,1.24359130859375,GOOD
2021-11-06 02:11:43.762837,-1.521484375,0.14599609375,1.21044921875,1.31988525390625,1.40380859375,1.24359130859375,GOOD
2021-11-06 02:11:44.122821,-1.52783203125,0.158203125,1.20458984375,1.15966796875,-0.05340576171875,0.32806396484375,GOOD
2021-11-06 02:11:44.482771,-1.52783203125,0.158203125,1.20458984375,1.15966796875,-0.05340576171875,0.32806396484375,GOOD
2021-11-06 02:11:44.842779,-1.52783203125,0.158203125,1.20458984375,1.3885498046875,-1.861572265625,0.32806396484375,GOOD
2021-11-06 02:11:45.202763,-1.50830078125,0.14208984375,1.2294921875,1.3885498046875,-1.861572265625,0.32806396484375,GOOD
2021-11-06 02:11:45.562948,-1.50830078125,0.14208984375,1.2294921875,1.3885498046875,-1.861572265625,0.32806396484375,GOOD
2021-11-06 02:11:45.922749,-1.49365234375,0.14794921875,1.26708984375,1.8157958984375,0.43487548828125,0.18310546875,GOOD
2021-11-06 02:11:46.282672,-1.49365234375,0.14794921875,1.26708984375,1.8157958984375,0.43487548828125,0.18310546875,GOOD
2021-11-06 02:11:46.642719,-1.49365234375,0.14794921875,1.26708984375,1.8157958984375,0.43487548828125,0.18310546875,GOOD
2021-11-06 02:11:47.002648,-1.44140625,0.1337890625,1.30078125,1.02996826171875,1.62506103515625,1.97601318359375,GOOD
2021-11-06 02:11:47.362748,-1.44140625,0.1337890625,1.30078125,1.02996826171875,1.62506103515625,1.97601318359375,GOOD
2021-11-06 02:11:47.722662,-1.44140625,0.1337890625,1.30078125,1.02996826171875,1.62506103515625,1.97601318359375,GOOD
2021-11-06 02:11:48.082640,-1.4716796875,0.1513671875,1.27783203125,1.89208984375,1.30462646484375,1.1138916015625,GOOD
2021-11-06 02:11:48.442664,-1.4716796875,0.1513671875,1.27783203125,1.89208984375,1.30462646484375,1.1138916015625,GOOD
2021-11-06 02:11:48.802634,-1.4716796875,0.1513671875,1.27783203125,1.53350830078125,1.44195556640625,0.55694580078125,GOOD
2021-11-06 02:11:49.162651,-1.4990234375,0.16748046875,1.2548828125,1.53350830078125,1.44195556640625,0.55694580078125,GOOD
2021-11-06 02:11:49.522674,-1.4990234375,0.16748046875,1.2548828125,1.53350830078125,1.44195556640625,0.55694580078125,GOOD
2021-11-06 02:11:49.882638,-1.43115234375,0.146484375,1.34375,3.0364990234375,-4.92095947265625,-0.46539306640625,GOOD
2021-11-06 02:11:50.242617,-1.43115234375,0.146484375,1.34375,3.0364990234375,-4.92095947265625,-0.46539306640625,GOOD
2021-11-06 02:11:50.602579,-1.43115234375,0.146484375,1.34375,3.0364990234375,-4.92095947265625,-0.46539306640625,GOOD
2021-11-06 02:11:50.962637,-1.40625,0.1533203125,1.34765625,0.60272216796875,-2.60162353515625,2.28118896484375,GOOD
2021-11-06 02:11:51.322608,-1.40625,0.1533203125,1.34765625,0.60272216796875,-2.60162353515625,2.28118896484375,GOOD
2021-11-06 02:11:51.682565,-1.40625,0.1533203125,1.34765625,0.60272216796875,-2.60162353515625,2.28118896484375,GOOD
2021-11-06 02:11:52.042522,-1.33935546875,0.15185546875,1.42724609375,1.0833740234375,2.6702880859375,-0.51116943359375,GOOD
2021-11-06 02:11:52.402610,-1.33935546875,0.15185546875,1.42724609375,1.0833740234375,2.6702880859375,-0.51116943359375,GOOD
2021-11-06 02:11:52.762546,-1.33935546875,0.15185546875,1.42724609375,1.0833740234375,2.6702880859375,-0.51116943359375,GOOD
2021-11-06 02:11:53.122532,-1.408203125,0.14208984375,1.359375,0.8697509765625,1.57928466796875,1.89971923828125,GOOD
2021-11-06 02:11:53.482560,-1.408203125,0.14208984375,1.359375,0.8697509765625,1.57928466796875,1.89971923828125,GOOD
2021-11-06 02:11:53.842519,-1.408203125,0.14208984375,1.359375,1.8157958984375,2.38800048828125,1.77764892578125,GOOD
2021-11-06 02:11:54.247541,-1.40625,0.14501953125,1.34619140625,1.8157958984375,2.38800048828125,1.77764892578125,GOOD
2021-11-06 02:11:54.607464,-1.40625,0.14501953125,1.34619140625,1.8157958984375,2.38800048828125,1.77764892578125,GOOD
2021-11-06 02:11:54.967466,-1.43896484375,0.13427734375,1.318359375,0.9613037109375,-0.51116943359375,0.7781982421875,GOOD
2021-11-06 02:11:55.327444,-1.43896484375,0.13427734375,1.318359375,0.9613037109375,-0.51116943359375,0.7781982421875,GOOD
2021-11-06 02:11:55.687464,-1.43896484375,0.13427734375,1.318359375,0.9613037109375,-0.51116943359375,0.7781982421875,GOOD
2021-11-06 02:11:56.047528,-1.43115234375,0.1533203125,1.33056640625,2.532958984375,0.84686279296875,0.95367431640625,GOOD
2021-11-06 02:11:56.407415,-1.43115234375,0.1533203125,1.33056640625,2.532958984375,0.84686279296875,0.95367431640625,GOOD
2021-11-06 02:11:56.767342,-1.43115234375,0.1533203125,1.33056640625,1.74713134765625,0.67138671875,0.89263916015625,GOOD
2021-11-06 02:11:57.127390,-1.42919921875,0.1435546875,1.3134765625,1.74713134765625,0.67138671875,0.89263916015625,GOOD
2021-11-06 02:11:57.487552,-1.42919921875,0.1435546875,1.3134765625,1.74713134765625,0.67138671875,0.89263916015625,GOOD
2021-11-06 02:11:57.847551,-1.42919921875,0.1435546875,1.3134765625,1.57928466796875,-0.4425048828125,-0.80108642578125,GOOD
2021-11-06 02:11:58.207424,-1.416015625,0.1201171875,1.3388671875,1.57928466796875,-0.4425048828125,-0.80108642578125,GOOD
2021-11-06 02:11:58.567433,-1.416015625,0.1201171875,1.3388671875,1.57928466796875,-0.4425048828125,-0.80108642578125,GOOD
2021-11-06 02:11:58.927400,-1.43408203125,0.099609375,1.33349609375,1.28936767578125,2.22015380859375,1.19781494140625,GOOD
2021-11-06 02:11:59.287328,-1.43408203125,0.099609375,1.33349609375,1.28936767578125,2.22015380859375,1.19781494140625,GOOD
2021-11-06 02:11:59.647406,-1.43408203125,0.099609375,1.33349609375,1.28936767578125,2.22015380859375,1.19781494140625,GOOD
2021-11-06 02:12:00.052378,-1.40234375,0.126953125,1.353515625,2.51007080078125,4.58526611328125,-4.09698486328125,GOOD
2021-11-06 02:12:00.412335,-1.40234375,0.126953125,1.353515625,2.51007080078125,4.58526611328125,-4.09698486328125,GOOD
2021-11-06 02:12:00.817341,-1.40234375,0.126953125,1.353515625,2.61688232421875,2.3956298828125,1.28173828125,GOOD
2021-11-06 02:12:01.177292,-1.40771484375,0.1318359375,1.36962890625,2.61688232421875,2.3956298828125,1.28173828125,GOOD
2021-11-06 02:12:01.537265,-1.40771484375,0.1318359375,1.36962890625,2.61688232421875,2.3956298828125,1.28173828125,GOOD
2021-11-06 02:12:01.942322,-1.36181640625,0.0703125,1.39501953125,2.51007080078125,0.61798095703125,1.65557861328125,GOOD
2021-11-06 02:12:02.302238,-1.36181640625,0.0703125,1.39501953125,2.51007080078125,0.61798095703125,1.65557861328125,GOOD
2021-11-06 02:12:02.662319,-1.36181640625,0.0703125,1.39501953125,2.51007080078125,0.61798095703125,1.65557861328125,GOOD
2021-11-06 02:12:03.022249,-1.3779296875,0.119140625,1.37890625,1.21307373046875,-0.16021728515625,0.3814697265625,GOOD
2021-11-06 02:12:03.382187,-1.3779296875,0.119140625,1.37890625,1.21307373046875,-0.16021728515625,0.3814697265625,GOOD
2021-11-06 02:12:03.742182,-1.3779296875,0.119140625,1.37890625,1.21307373046875,-0.16021728515625,0.3814697265625,GOOD
2021-11-06 02:12:04.102203,-1.3408203125,0.11962890625,1.40771484375,1.01470947265625,1.0223388671875,0.70953369140625,GOOD
2021-11-06 02:12:04.462264,-1.3408203125,0.11962890625,1.40771484375,1.01470947265625,1.0223388671875,0.70953369140625,GOOD
2021-11-06 02:12:04.822232,-1.3408203125,0.11962890625,1.40771484375,0.4119873046875,0.43487548828125,0.2899169921875,GOOD
2021-11-06 02:12:05.182211,-1.3740234375,0.1298828125,1.3603515625,0.4119873046875,0.43487548828125,0.2899169921875,GOOD
2021-11-06 02:12:05.542232,-1.3740234375,0.1298828125,1.3603515625,0.4119873046875,0.43487548828125,0.2899169921875,GOOD
2021-11-06 02:12:05.902240,-1.39306640625,0.134765625,1.34619140625,1.74713134765625,4.70733642578125,4.40216064453125,GOOD
2021-11-06 02:12:06.262228,-1.39306640625,0.134765625,1.34619140625,1.74713134765625,4.70733642578125,4.40216064453125,GOOD
2021-11-06 02:12:06.622130,-1.39306640625,0.134765625,1.34619140625,1.74713134765625,4.70733642578125,4.40216064453125,GOOD
2021-11-06 02:12:06.982165,-1.51123046875,0.16162109375,1.2197265625,1.31988525390625,-2.6397705078125,-1.93023681640625,GOOD
2021-11-06 02:12:07.342181,-1.51123046875,0.16162109375,1.2197265625,1.31988525390625,-2.6397705078125,-1.93023681640625,GOOD
2021-11-06 02:12:07.702172,-1.51123046875,0.16162109375,1.2197265625,1.31988525390625,-2.6397705078125,-1.93023681640625,GOOD
2021-11-06 02:12:08.062129,-1.54443359375,0.1611328125,1.1923828125,-1.129150390625,4.00543212890625,0.5340576171875,GOOD
2021-11-06 02:12:08.467068,-1.54443359375,0.1611328125,1.1923828125,-1.129150390625,4.00543212890625,0.5340576171875,GOOD
2021-11-06 02:12:08.872114,-1.54443359375,0.1611328125,1.1923828125,0.18310546875,-0.213623046875,0.4425048828125,GOOD
2021-11-06 02:12:09.232114,-1.548828125,0.10400390625,1.19775390625,0.18310546875,-0.213623046875,0.4425048828125,GOOD
2021-11-06 02:12:09.592125,-1.548828125,0.10400390625,1.19775390625,0.18310546875,-0.213623046875,0.4425048828125,GOOD
2021-11-06 02:12:09.952017,-1.52001953125,0.12255859375,1.20703125,1.7852783203125,1.251220703125,1.19781494140625,GOOD
2021-11-06 02:12:10.312137,-1.52001953125,0.12255859375,1.20703125,1.7852783203125,1.251220703125,1.19781494140625,GOOD
2021-11-06 02:12:10.672107,-1.52001953125,0.12255859375,1.20703125,1.7852783203125,1.251220703125,1.19781494140625,GOOD
2021-11-06 02:12:11.032093,-1.50048828125,0.14111328125,1.23486328125,3.753662109375,-0.64849853515625,1.0223388671875,GOOD
2021-11-06 02:12:11.392083,-1.50048828125,0.14111328125,1.23486328125,3.753662109375,-0.64849853515625,1.0223388671875,GOOD
2021-11-06 02:12:11.751972,-1.50048828125,0.14111328125,1.23486328125,3.753662109375,-0.64849853515625,1.0223388671875,GOOD
2021-11-06 02:12:12.111991,-1.482421875,0.1455078125,1.2724609375,1.922607421875,0.52642822265625,1.5411376953125,GOOD
2021-11-06 02:12:12.472055,-1.482421875,0.1455078125,1.2724609375,1.922607421875,0.52642822265625,1.5411376953125,GOOD
2021-11-06 02:12:12.832014,-1.482421875,0.1455078125,1.2724609375,1.800537109375,0.66375732421875,0.58746337890625,GOOD
2021-11-06 02:12:13.191958,-1.46337890625,0.140625,1.27783203125,1.800537109375,0.66375732421875,0.58746337890625,GOOD
2021-11-06 02:12:13.551913,-1.46337890625,0.140625,1.27783203125,1.800537109375,0.66375732421875,0.58746337890625,GOOD
2021-11-06 02:12:13.956914,-1.4794921875,0.13427734375,1.26123046875,1.708984375,3.86810302734375,1.27410888671875,GOOD
2021-11-06 02:12:14.316933,-1.4794921875,0.13427734375,1.26123046875,1.708984375,3.86810302734375,1.27410888671875,GOOD
2021-11-06 02:12:14.676968,-1.4794921875,0.13427734375,1.26123046875,1.708984375,3.86810302734375,1.27410888671875,GOOD
2021-11-06 02:12:15.036965,-1.59765625,0.19873046875,1.080078125,1.251220703125,2.43377685546875,0.06103515625,GOOD
2021-11-06 02:12:15.441959,-1.59765625,0.19873046875,1.080078125,1.251220703125,2.43377685546875,0.06103515625,GOOD
2021-11-06 02:12:15.802379,-1.59765625,0.19873046875,1.080078125,1.220703125,0.2288818359375,0.28228759765625,GOOD
2021-11-06 02:12:16.206951,-1.5927734375,0.17626953125,1.10498046875,1.220703125,0.2288818359375,0.28228759765625,GOOD
2021-11-06 02:12:16.566893,-1.5927734375,0.17626953125,1.10498046875,1.220703125,0.2288818359375,0.28228759765625,GOOD
2021-11-06 02:12:16.927370,-1.57470703125,0.17041015625,1.15576171875,1.556396484375,0.77056884765625,1.28173828125,GOOD
2021-11-06 02:12:17.286884,-1.57470703125,0.17041015625,1.15576171875,1.556396484375,0.77056884765625,1.28173828125,GOOD
2021-11-06 02:12:17.646924,-1.57470703125,0.17041015625,1.15576171875,1.556396484375,0.77056884765625,1.28173828125,GOOD
2021-11-06 02:12:18.006886,-1.560546875,0.15771484375,1.1748046875,1.96075439453125,1.5106201171875,1.41143798828125,GOOD
2021-11-06 02:12:18.366862,-1.560546875,0.15771484375,1.1748046875,1.96075439453125,1.5106201171875,1.41143798828125,GOOD
2021-11-06 02:12:18.726901,-1.560546875,0.15771484375,1.1748046875,1.96075439453125,1.5106201171875,1.41143798828125,GOOD
2021-11-06 02:12:19.086839,-1.5400390625,0.16943359375,1.17041015625,1.5106201171875,0.12969970703125,-0.2288818359375,GOOD
2021-11-06 02:12:19.446878,-1.5400390625,0.16943359375,1.17041015625,1.5106201171875,0.12969970703125,-0.2288818359375,GOOD
2021-11-06 02:12:19.896841,-1.5400390625,0.16943359375,1.17041015625,1.922607421875,-30.37261962890625,-0.518798828125,GOOD
2021-11-06 02:12:20.256850,-0.94921875,0.17578125,1.76708984375,1.922607421875,-30.37261962890625,-0.518798828125,GOOD
2021-11-06 02:12:20.616789,-0.94921875,0.17578125,1.76708984375,1.922607421875,-30.37261962890625,-0.518798828125,GOOD
2021-11-06 02:12:21.021762,-0.74072265625,0.1650390625,1.826171875,1.36566162109375,1.57928466796875,0.54168701171875,BAD
2021-11-06 02:12:21.426803,-0.74072265625,0.1650390625,1.826171875,1.36566162109375,1.57928466796875,0.54168701171875,BAD
2021-11-06 02:12:21.831719,-0.74072265625,0.1650390625,1.826171875,0.70953369140625,6.66046142578125,2.95257568359375,BAD
2021-11-06 02:12:22.191766,-0.74267578125,0.1875,1.82568359375,0.70953369140625,6.66046142578125,2.95257568359375,BAD
2021-11-06 02:12:22.551717,-0.74267578125,0.1875,1.82568359375,0.70953369140625,6.66046142578125,2.95257568359375,BAD
2021-11-06 02:12:22.911743,-0.77197265625,0.09228515625,1.80712890625,-1.190185546875,0.274658203125,3.47900390625,BAD
2021-11-06 02:12:23.271775,-0.77197265625,0.09228515625,1.80712890625,-1.190185546875,0.274658203125,3.47900390625,BAD
2021-11-06 02:12:23.631718,-0.77197265625,0.09228515625,1.80712890625,-1.190185546875,0.274658203125,3.47900390625,BAD
2021-11-06 02:12:23.991711,-0.77587890625,0.11474609375,1.79296875,2.67791748046875,4.46319580078125,0.518798828125,BAD
2021-11-06 02:12:24.351723,-0.77587890625,0.11474609375,1.79296875,2.67791748046875,4.46319580078125,0.518798828125,BAD
2021-11-06 02:12:24.711701,-0.77587890625,0.11474609375,1.79296875,2.67791748046875,4.46319580078125,0.518798828125,BAD
2021-11-06 02:12:25.071755,-0.82470703125,0.0869140625,1.791015625,2.35748291015625,1.8463134765625,1.8463134765625,BAD
2021-11-06 02:12:25.431626,-0.82470703125,0.0869140625,1.791015625,2.35748291015625,1.8463134765625,1.8463134765625,BAD
2021-11-06 02:12:25.791692,-0.82470703125,0.0869140625,1.791015625,3.54766845703125,1.56402587890625,0.92315673828125,BAD
2021-11-06 02:12:26.151628,-0.8408203125,0.12744140625,1.76611328125,3.54766845703125,1.56402587890625,0.92315673828125,BAD
2021-11-06 02:12:26.511635,-0.8408203125,0.12744140625,1.76611328125,3.54766845703125,1.56402587890625,0.92315673828125,BAD
2021-11-06 02:12:26.871675,-0.8486328125,0.11279296875,1.7900390625,1.16729736328125,0.396728515625,0.90789794921875,BAD
2021-11-06 02:12:27.231612,-0.8486328125,0.11279296875,1.7900390625,1.16729736328125,0.396728515625,0.90789794921875,BAD
2021-11-06 02:12:27.636635,-0.8486328125,0.11279296875,1.7900390625,1.16729736328125,0.396728515625,0.90789794921875,BAD
2021-11-06 02:12:28.041621,-0.86181640625,0.1015625,1.7685546875,1.47247314453125,0.70953369140625,0.457763671875,BAD
2021-11-06 02:12:28.401561,-0.86181640625,0.1015625,1.7685546875,1.47247314453125,0.70953369140625,0.457763671875,BAD
2021-11-06 02:12:28.806571,-0.86181640625,0.1015625,1.7685546875,1.44195556640625,0.518798828125,1.50299072265625,BAD
2021-11-06 02:12:29.166553,-0.841796875,0.1015625,1.783203125,1.44195556640625,0.518798828125,1.50299072265625,BAD
2021-11-06 02:12:29.526595,-0.841796875,0.1015625,1.783203125,1.44195556640625,0.518798828125,1.50299072265625,BAD
2021-11-06 02:12:29.886550,-0.83837890625,0.11669921875,1.76171875,2.0599365234375,0.61798095703125,1.97601318359375,BAD
2021-11-06 02:12:30.246664,-0.83837890625,0.11669921875,1.76171875,2.0599365234375,0.61798095703125,1.97601318359375,BAD
2021-11-06 02:12:30.606551,-0.83837890625,0.11669921875,1.76171875,2.0599365234375,0.61798095703125,1.97601318359375,BAD
2021-11-06 02:12:30.966539,-0.82861328125,0.1240234375,1.7880859375,0.9765625,1.44195556640625,0.03814697265625,BAD
2021-11-06 02:12:31.326515,-0.82861328125,0.1240234375,1.7880859375,0.9765625,1.44195556640625,0.03814697265625,BAD
2021-11-06 02:12:31.731543,-0.82861328125,0.1240234375,1.7880859375,0.9765625,1.44195556640625,0.03814697265625,BAD
2021-11-06 02:12:32.091464,-0.833984375,0.08203125,1.79931640625,0.8544921875,0.17547607421875,1.5716552734375,BAD
2021-11-06 02:12:32.451528,-0.833984375,0.08203125,1.79931640625,0.8544921875,0.17547607421875,1.5716552734375,BAD
2021-11-06 02:12:32.811490,-0.833984375,0.08203125,1.79931640625,1.15203857421875,0.885009765625,0.1220703125,BAD
2021-11-06 02:12:33.171440,-0.81689453125,0.11376953125,1.78173828125,1.15203857421875,0.885009765625,0.1220703125,BAD
2021-11-06 02:12:33.576456,-0.81689453125,0.11376953125,1.78173828125,1.15203857421875,0.885009765625,0.1220703125,BAD
2021-11-06 02:12:33.981490,-0.82373046875,0.10205078125,1.7861328125,2.18963623046875,1.1749267578125,1.15203857421875,BAD
2021-11-06 02:12:34.341458,-0.82373046875,0.10205078125,1.7861328125,2.18963623046875,1.1749267578125,1.15203857421875,BAD
2021-11-06 02:12:35.196512,-0.82373046875,0.10205078125,1.7861328125,1.25885009765625,1.068115234375,0.28228759765625,BAD
2021-11-06 02:12:35.556894,-0.79296875,0.0859375,1.7978515625,1.25885009765625,1.068115234375,0.28228759765625,BAD
2021-11-06 02:12:35.916909,-0.81787109375,0.08642578125,1.7802734375,1.45721435546875,1.3580322265625,0.5950927734375,BAD
2021-11-06 02:12:36.276909,-0.81787109375,0.08642578125,1.7802734375,1.45721435546875,1.3580322265625,0.5950927734375,BAD
2021-11-06 02:12:36.681416,-0.81787109375,0.08642578125,1.7802734375,1.45721435546875,1.3580322265625,0.5950927734375,BAD
2021-11-06 02:12:37.041381,-0.81005859375,0.0849609375,1.80224609375,2.0751953125,1.617431640625,0.72479248046875,BAD
2021-11-06 02:12:37.401834,-0.81005859375,0.0849609375,1.80224609375,2.0751953125,1.617431640625,0.72479248046875,BAD
2021-11-06 02:12:37.806384,-0.81005859375,0.0849609375,1.80224609375,2.23541259765625,1.617431640625,0.64849853515625,BAD
2021-11-06 02:12:38.301374,-0.81640625,0.10302734375,1.78515625,2.23541259765625,1.617431640625,0.64849853515625,BAD
2021-11-06 02:12:38.706299,-0.81640625,0.10302734375,1.78515625,2.23541259765625,1.617431640625,0.64849853515625,BAD
2021-11-06 02:12:39.066371,-0.83251953125,0.09033203125,1.7763671875,1.54876708984375,0.93841552734375,1.0833740234375,BAD
2021-11-06 02:12:39.426299,-0.83251953125,0.09033203125,1.7763671875,1.54876708984375,0.93841552734375,1.0833740234375,BAD
2021-11-06 02:12:39.831412,-0.83251953125,0.09033203125,1.7763671875,1.65557861328125,1.2664794921875,1.129150390625,BAD
2021-11-06 02:12:40.191275,-0.83935546875,0.09423828125,1.77001953125,1.65557861328125,1.2664794921875,1.129150390625,BAD
2021-11-06 02:12:40.551319,-0.83935546875,0.09423828125,1.77001953125,1.65557861328125,1.2664794921875,1.129150390625,BAD
2021-11-06 02:12:40.911334,-0.8359375,0.0859375,1.7734375,1.6326904296875,0.99945068359375,0.518798828125,BAD
2021-11-06 02:12:41.271279,-0.8359375,0.0859375,1.7734375,1.6326904296875,0.99945068359375,0.518798828125,BAD
2021-11-06 02:12:41.631336,-0.8359375,0.0859375,1.7734375,1.6326904296875,0.99945068359375,0.518798828125,BAD
2021-11-06 02:12:41.991263,-0.84912109375,0.08544921875,1.78857421875,1.2969970703125,1.21307373046875,0.732421875,BAD
2021-11-06 02:12:42.351206,-0.84912109375,0.08544921875,1.78857421875,1.2969970703125,1.21307373046875,0.732421875,BAD
2021-11-06 02:12:42.711233,-0.84912109375,0.08544921875,1.78857421875,1.2969970703125,1.21307373046875,0.732421875,BAD
2021-11-06 02:12:43.071273,-0.83056640625,0.0732421875,1.78662109375,2.03704833984375,0.9613037109375,0.83160400390625,BAD
2021-11-06 02:12:43.476193,-0.83056640625,0.0732421875,1.78662109375,2.03704833984375,0.9613037109375,0.83160400390625,BAD
2021-11-06 02:12:43.836235,-0.83056640625,0.0732421875,1.78662109375,1.739501953125,1.53350830078125,0.37384033203125,BAD
2021-11-06 02:12:44.196267,-0.84130859375,0.07861328125,1.7802734375,1.739501953125,1.53350830078125,0.37384033203125,BAD
2021-11-06 02:12:44.601840,-0.84130859375,0.07861328125,1.7802734375,1.739501953125,1.53350830078125,0.37384033203125,BAD
2021-11-06 02:12:44.961234,-0.84521484375,0.07177734375,1.78759765625,1.0986328125,1.19781494140625,0.457763671875,BAD
2021-11-06 02:12:45.321143,-0.84521484375,0.07177734375,1.78759765625,1.0986328125,1.19781494140625,0.457763671875,BAD
2021-11-06 02:12:45.681208,-0.84521484375,0.07177734375,1.78759765625,1.0986328125,1.19781494140625,0.457763671875,BAD
2021-11-06 02:12:46.041132,-0.8330078125,0.07666015625,1.796875,1.5869140625,0.64849853515625,1.25885009765625,BAD
2021-11-06 02:12:46.446640,-0.8330078125,0.07666015625,1.796875,1.5869140625,0.64849853515625,1.25885009765625,BAD
2021-11-06 02:12:46.896167,-0.8330078125,0.07666015625,1.796875,2.58636474609375,1.77001953125,1.6326904296875,BAD
2021-11-06 02:12:47.256061,-0.83544921875,0.07861328125,1.80029296875,2.58636474609375,1.77001953125,1.6326904296875,BAD
2021-11-06 02:12:47.661152,-0.83544921875,0.07861328125,1.80029296875,2.58636474609375,1.77001953125,1.6326904296875,BAD
2021-11-06 02:12:48.021125,-0.81494140625,0.10693359375,1.783203125,3.6163330078125,0.03814697265625,2.5482177734375,BAD
2021-11-06 02:12:48.381085,-0.81494140625,0.10693359375,1.783203125,3.6163330078125,0.03814697265625,2.5482177734375,BAD
2021-11-06 02:12:48.741113,-0.81494140625,0.10693359375,1.783203125,3.6163330078125,0.03814697265625,2.5482177734375,BAD
2021-11-06 02:12:49.101082,-0.8173828125,0.107421875,1.80029296875,0.26702880859375,-0.11444091796875,-1.12152099609375,BAD
2021-11-06 02:12:49.461089,-0.8173828125,0.107421875,1.80029296875,0.26702880859375,-0.11444091796875,-1.12152099609375,BAD
2021-11-06 02:12:49.866052,-0.7861328125,0.091796875,1.81982421875,-0.23651123046875,1.47247314453125,-0.335693359375,BAD
2021-11-06 02:12:50.226058,-0.7861328125,0.091796875,1.81982421875,-0.23651123046875,1.47247314453125,-0.335693359375,BAD
2021-11-06 02:12:50.586098,-0.7861328125,0.091796875,1.81982421875,-0.23651123046875,1.47247314453125,-0.335693359375,BAD
2021-11-06 02:12:50.991036,-0.791015625,0.076171875,1.796875,1.85394287109375,1.9683837890625,0.762939453125,BAD
2021-11-06 02:12:51.351053,-0.791015625,0.076171875,1.796875,1.85394287109375,1.9683837890625,0.762939453125,BAD
2021-11-06 02:12:51.711039,-0.791015625,0.076171875,1.796875,1.85394287109375,1.9683837890625,0.762939453125,BAD
2021-11-06 02:12:52.070985,-0.80322265625,0.09619140625,1.78955078125,1.556396484375,0.640869140625,0.70953369140625,BAD
2021-11-06 02:12:52.476044,-0.80322265625,0.09619140625,1.78955078125,1.556396484375,0.640869140625,0.70953369140625,BAD
2021-11-06 02:12:52.836531,-0.80322265625,0.09619140625,1.78955078125,2.01416015625,1.0223388671875,0.1068115234375,BAD
2021-11-06 02:12:53.195976,-0.79345703125,0.083984375,1.81689453125,2.01416015625,1.0223388671875,0.1068115234375,BAD
2021-11-06 02:12:53.555916,-0.79345703125,0.083984375,1.81689453125,2.01416015625,1.0223388671875,0.1068115234375,BAD
2021-11-06 02:12:53.960953,-0.82275390625,0.06982421875,1.8037109375,1.57928466796875,0.89263916015625,0.69427490234375,BAD
2021-11-06 02:12:54.320921,-0.82275390625,0.06982421875,1.8037109375,1.57928466796875,0.89263916015625,0.69427490234375,BAD
2021-11-06 02:12:54.680974,-0.82275390625,0.06982421875,1.8037109375,1.57928466796875,0.89263916015625,0.69427490234375,BAD
2021-11-06 02:12:55.041482,-0.81298828125,0.091796875,1.79931640625,1.708984375,2.02178955078125,0.38909912109375,BAD
2021-11-06 02:12:55.445887,-0.81298828125,0.091796875,1.79931640625,1.708984375,2.02178955078125,0.38909912109375,BAD
2021-11-06 02:12:55.850939,-0.81298828125,0.091796875,1.79931640625,2.471923828125,1.76239013671875,-0.23651123046875,BAD
2021-11-06 02:12:56.255890,-0.8193359375,0.08447265625,1.77294921875,2.471923828125,1.76239013671875,-0.23651123046875,BAD
2021-11-06 02:12:56.615932,-0.8193359375,0.08447265625,1.77294921875,2.471923828125,1.76239013671875,-0.23651123046875,BAD
2021-11-06 02:12:57.065920,-0.81103515625,0.08447265625,1.787109375,1.53350830078125,1.1444091796875,0.3662109375,BAD
2021-11-06 02:12:57.470858,-0.81103515625,0.08447265625,1.787109375,1.53350830078125,1.1444091796875,0.3662109375,BAD
2021-11-06 02:12:57.830856,-0.81103515625,0.08447265625,1.787109375,1.495361328125,1.80816650390625,0.67901611328125,BAD
2021-11-06 02:12:58.190836,-0.7607421875,0.08447265625,1.8037109375,1.495361328125,1.80816650390625,0.67901611328125,BAD
2021-11-06 02:12:58.550821,-0.7607421875,0.08447265625,1.8037109375,1.495361328125,1.80816650390625,0.67901611328125,BAD
2021-11-06 02:12:58.910869,-0.80810546875,0.07958984375,1.78955078125,1.617431640625,1.36566162109375,0.3662109375,BAD
2021-11-06 02:12:59.270830,-0.80810546875,0.07958984375,1.78955078125,1.617431640625,1.36566162109375,0.3662109375,BAD
2021-11-06 02:12:59.630909,-0.80810546875,0.07958984375,1.78955078125,1.617431640625,1.36566162109375,0.3662109375,BAD
2021-11-06 02:12:59.990813,-0.8037109375,0.0751953125,1.79052734375,2.51007080078125,1.4190673828125,2.0751953125,BAD
2021-11-06 02:13:00.350825,-0.8037109375,0.0751953125,1.79052734375,2.51007080078125,1.4190673828125,2.0751953125,BAD
2021-11-06 02:13:00.710781,-0.8037109375,0.0751953125,1.79052734375,2.51007080078125,1.4190673828125,2.0751953125,BAD
2021-11-06 02:13:01.070843,-0.81005859375,0.08642578125,1.80224609375,1.42669677734375,1.007080078125,0.3204345703125,BAD
2021-11-06 02:13:01.430795,-0.81005859375,0.08642578125,1.80224609375,1.42669677734375,1.007080078125,0.3204345703125,BAD
2021-11-06 02:13:01.790773,-0.81005859375,0.08642578125,1.80224609375,1.708984375,1.220703125,0.98419189453125,BAD
2021-11-06 02:13:02.150749,-0.7841796875,0.09130859375,1.79931640625,1.708984375,1.220703125,0.98419189453125,BAD
2021-11-06 02:13:02.555796,-0.7841796875,0.09130859375,1.79931640625,1.708984375,1.220703125,0.98419189453125,BAD
2021-11-06 02:13:02.915733,-0.79296875,0.0947265625,1.80859375,1.7852783203125,1.1749267578125,0.701904296875,BAD
2021-11-06 02:13:03.276301,-0.79296875,0.0947265625,1.80859375,1.7852783203125,1.1749267578125,0.701904296875,BAD
2021-11-06 02:13:03.635727,-0.79296875,0.0947265625,1.80859375,1.7852783203125,1.1749267578125,0.701904296875,BAD
2021-11-06 02:13:03.995682,-0.79541015625,0.08984375,1.8056640625,1.45721435546875,1.1444091796875,1.03759765625,BAD
2021-11-06 02:13:04.355690,-0.79541015625,0.08984375,1.8056640625,1.45721435546875,1.1444091796875,1.03759765625,BAD
2021-11-06 02:13:04.715711,-0.79541015625,0.08984375,1.8056640625,1.45721435546875,1.1444091796875,1.03759765625,BAD
2021-11-06 02:13:05.075669,-0.7890625,0.0810546875,1.80517578125,1.73187255859375,1.30462646484375,1.07574462890625,BAD
2021-11-06 02:13:05.480653,-0.7890625,0.0810546875,1.80517578125,1.73187255859375,1.30462646484375,1.07574462890625,BAD
2021-11-06 02:13:05.840644,-0.7890625,0.0810546875,1.80517578125,1.64031982421875,1.12152099609375,0.579833984375,BAD
2021-11-06 02:13:06.200620,-0.79833984375,0.072265625,1.8056640625,1.64031982421875,1.12152099609375,0.579833984375,BAD
2021-11-06 02:13:06.560746,-0.79833984375,0.072265625,1.8056640625,1.64031982421875,1.12152099609375,0.579833984375,BAD
2021-11-06 02:13:06.965596,-0.79345703125,0.07470703125,1.80078125,1.50299072265625,0.09918212890625,0.4119873046875,BAD
2021-11-06 02:13:07.325649,-0.79345703125,0.07470703125,1.80078125,1.50299072265625,0.09918212890625,0.4119873046875,BAD
2021-11-06 02:13:07.685667,-0.79345703125,0.07470703125,1.80078125,1.50299072265625,0.09918212890625,0.4119873046875,BAD
2021-11-06 02:13:08.045639,-0.80224609375,0.08740234375,1.814453125,1.52587890625,1.4190673828125,0.9918212890625,BAD
2021-11-06 02:13:08.405605,-0.80224609375,0.08740234375,1.814453125,1.52587890625,1.4190673828125,0.9918212890625,BAD
2021-11-06 02:13:08.810733,-0.80224609375,0.08740234375,1.814453125,1.800537109375,1.38092041015625,0.7476806640625,BAD
2021-11-06 02:13:09.170553,-0.79296875,0.08056640625,1.794921875,1.800537109375,1.38092041015625,0.7476806640625,BAD
2021-11-06 02:13:09.530633,-0.79296875,0.08056640625,1.794921875,1.800537109375,1.38092041015625,0.7476806640625,BAD
2021-11-06 02:13:09.935563,-0.75048828125,0.08447265625,1.80810546875,2.44903564453125,0.23651123046875,1.77001953125,BAD
2021-11-06 02:13:10.295709,-0.75048828125,0.08447265625,1.80810546875,2.44903564453125,0.23651123046875,1.77001953125,BAD
2021-11-06 02:13:10.655606,-0.75048828125,0.08447265625,1.80810546875,2.44903564453125,0.23651123046875,1.77001953125,BAD
