time,acc_x,acc_y,acc_z,gyr_x,gyr_y,gyr_z,posture
2021-11-05 23:40:46.577496,0.0,0.0,0.0,0.0,0.0,0.0,GOOD
2021-11-05 23:40:47.027426,0.0,0.0,0.0,0.0,0.0,0.0,GOOD
2021-11-05 23:40:47.432447,-1.5732421875,0.1064453125,1.16845703125,1.708984375,1.06048583984375,0.35858154296875,GOOD
2021-11-05 23:40:47.792504,-1.5732421875,0.1064453125,1.16845703125,1.708984375,1.06048583984375,0.35858154296875,GOOD
2021-11-05 23:40:48.152484,-1.55419921875,0.1162109375,1.16552734375,1.739501953125,0.46539306640625,0.5035400390625,GOOD
2021-11-05 23:40:48.512500,-1.55419921875,0.1162109375,1.16552734375,1.739501953125,0.46539306640625,0.5035400390625,GOOD
2021-11-05 23:40:48.872559,-1.55419921875,0.1162109375,1.16552734375,1.739501953125,0.46539306640625,0.5035400390625,GOOD
2021-11-05 23:40:49.232556,-1.529296875,0.11181640625,1.19921875,1.18255615234375,2.01416015625,-0.05340576171875,GOOD
2021-11-05 23:40:49.592614,-1.529296875,0.11181640625,1.19921875,1.18255615234375,2.01416015625,-0.05340576171875,GOOD
2021-11-05 23:40:49.952547,-1.529296875,0.11181640625,1.19921875,1.18255615234375,2.01416015625,-0.05340576171875,GOOD
2021-11-05 23:40:50.312722,-1.60302734375,0.10693359375,1.103515625,2.4566650390625,8.52203369140625,1.46484375,GOOD
2021-11-05 23:40:50.672731,-1.60302734375,0.10693359375,1.103515625,2.4566650390625,8.52203369140625,1.46484375,GOOD
2021-11-05 23:40:51.077798,-1.60302734375,0.10693359375,1.103515625,1.0986328125,0.00762939453125,1.13677978515625,GOOD
2021-11-05 23:40:51.437723,-1.6259765625,0.13623046875,1.06884765625,1.0986328125,0.00762939453125,1.13677978515625,GOOD
2021-11-05 23:40:51.797764,-1.6259765625,0.13623046875,1.06884765625,1.0986328125,0.00762939453125,1.13677978515625,GOOD
2021-11-05 23:40:52.157742,-1.6005859375,0.12890625,1.1123046875,1.739501953125,0.38909912109375,0.89263916015625,GOOD
2021-11-05 23:40:52.562769,-1.6005859375,0.12890625,1.1123046875,1.739501953125,0.38909912109375,0.89263916015625,GOOD
2021-11-05 23:40:52.923320,-1.6005859375,0.12890625,1.1123046875,1.739501953125,0.38909912109375,0.89263916015625,GOOD
2021-11-05 23:40:53.327873,-1.578125,0.1240234375,1.12548828125,0.12969970703125,1.983642578125,0.46539306640625,GOOD
2021-11-05 23:40:53.687903,-1.578125,0.1240234375,1.12548828125,0.12969970703125,1.983642578125,0.46539306640625,GOOD
2021-11-05 23:40:54.138044,-1.578125,0.1240234375,1.12548828125,1.4190673828125,1.42669677734375,-0.6866455078125,GOOD
2021-11-05 23:40:54.497930,-1.5888671875,0.0908203125,1.154296875,1.4190673828125,1.42669677734375,-0.6866455078125,GOOD
2021-11-05 23:40:54.857971,-1.5888671875,0.0908203125,1.154296875,1.4190673828125,1.42669677734375,-0.6866455078125,GOOD
2021-11-05 23:40:55.218009,-1.57958984375,0.10302734375,1.12841796875,3.021240234375,2.655029296875,0.640869140625,GOOD
2021-11-05 23:40:55.577973,-1.57958984375,0.10302734375,1.12841796875,3.021240234375,2.655029296875,0.640869140625,GOOD
2021-11-05 23:40:55.938060,-1.57958984375,0.10302734375,1.12841796875,3.021240234375,2.655029296875,0.640869140625,GOOD
2021-11-05 23:40:56.298091,-1.583984375,0.115234375,1.14208984375,2.2430419921875,1.50299072265625,0.72479248046875,GOOD
2021-11-05 23:40:56.658551,-1.583984375,0.115234375,1.14208984375,2.2430419921875,1.50299072265625,0.72479248046875,GOOD
2021-11-05 23:40:57.063054,-1.583984375,0.115234375,1.14208984375,1.9989013671875,0.3204345703125,1.5716552734375,GOOD
2021-11-05 23:40:57.423092,-1.56591796875,0.1064453125,1.1767578125,1.9989013671875,0.3204345703125,1.5716552734375,GOOD
2021-11-05 23:40:57.783115,-1.56591796875,0.1064453125,1.1767578125,1.9989013671875,0.3204345703125,1.5716552734375,GOOD
2021-11-05 23:40:58.143193,-1.55712890625,0.09619140625,1.16748046875,1.495361328125,1.19781494140625,0.66375732421875,GOOD
2021-11-05 23:40:58.503155,-1.55712890625,0.09619140625,1.16748046875,1.495361328125,1.19781494140625,0.66375732421875,GOOD
2021-11-05 23:40:58.863245,-1.55712890625,0.09619140625,1.16748046875,1.495361328125,1.19781494140625,0.66375732421875,GOOD
2021-11-05 23:40:59.223220,-1.548828125,0.1044921875,1.18603515625,1.71661376953125,1.0833740234375,0.5950927734375,GOOD
2021-11-05 23:40:59.583194,-1.548828125,0.1044921875,1.18603515625,1.71661376953125,1.0833740234375,0.5950927734375,GOOD
2021-11-05 23:40:59.988247,-1.548828125,0.1044921875,1.18603515625,1.71661376953125,1.0833740234375,0.5950927734375,GOOD
2021-11-05 23:41:00.348288,-1.56591796875,0.1142578125,1.1669921875,1.7242431640625,0.91552734375,0.7781982421875,GOOD
2021-11-05 23:41:00.753240,-1.56591796875,0.1142578125,1.1669921875,1.7242431640625,0.91552734375,0.7781982421875,GOOD
2021-11-05 23:41:01.113246,-1.5419921875,0.10009765625,1.1796875,1.85394287109375,1.30462646484375,1.09100341796875,GOOD
2021-11-05 23:41:01.518311,-1.5419921875,0.10009765625,1.1796875,1.85394287109375,1.30462646484375,1.09100341796875,GOOD
2021-11-05 23:41:01.878365,-1.5419921875,0.10009765625,1.1796875,1.85394287109375,1.30462646484375,1.09100341796875,GOOD
2021-11-05 23:41:02.238375,-1.55322265625,0.09326171875,1.17919921875,1.01470947265625,-0.9307861328125,1.33514404296875,GOOD
2021-11-05 23:41:02.688408,-1.55322265625,0.09326171875,1.17919921875,1.01470947265625,-0.9307861328125,1.33514404296875,GOOD
2021-11-05 23:41:03.093466,-1.55322265625,0.09326171875,1.17919921875,1.56402587890625,-2.9296875,-0.12969970703125,GOOD
2021-11-05 23:41:03.678426,-1.4970703125,0.08251953125,1.259765625,1.56402587890625,-2.9296875,-0.12969970703125,GOOD
2021-11-05 23:41:04.038430,-1.4970703125,0.08251953125,1.259765625,2.55584716796875,-15.350341796875,3.68499755859375,GOOD
2021-11-05 23:41:04.398451,-1.23681640625,0.08447265625,1.5166015625,2.55584716796875,-15.350341796875,3.68499755859375,BAD
2021-11-05 23:41:04.758557,-1.23681640625,0.08447265625,1.5166015625,2.55584716796875,-15.350341796875,3.68499755859375,BAD
2021-11-05 23:41:05.163533,-1.0087890625,0.07275390625,1.67236328125,1.06048583984375,-3.88336181640625,1.5106201171875,BAD
2021-11-05 23:41:05.523542,-1.0087890625,0.07275390625,1.67236328125,1.06048583984375,-3.88336181640625,1.5106201171875,BAD
2021-11-05 23:41:05.883622,-1.0087890625,0.07275390625,1.67236328125,1.06048583984375,-3.88336181640625,1.5106201171875,BAD
2021-11-05 23:41:06.243559,-0.99169921875,0.07275390625,1.697265625,1.79290771484375,1.28936767578125,0.823974609375,BAD
2021-11-05 23:41:06.604113,-0.99169921875,0.07275390625,1.697265625,1.79290771484375,1.28936767578125,0.823974609375,BAD
2021-11-05 23:41:06.963612,-0.99169921875,0.07275390625,1.697265625,1.79290771484375,1.28936767578125,0.823974609375,BAD
2021-11-05 23:41:07.323633,-1.001953125,0.06396484375,1.69189453125,1.50299072265625,1.617431640625,-0.11444091796875,BAD
2021-11-05 23:41:07.683698,-1.001953125,0.06396484375,1.69189453125,1.50299072265625,1.617431640625,-0.11444091796875,BAD
2021-11-05 23:41:08.043722,-1.001953125,0.06396484375,1.69189453125,1.59454345703125,0.8392333984375,0.6866455078125,BAD
2021-11-05 23:41:08.448734,-0.98583984375,0.083984375,1.69140625,1.59454345703125,0.8392333984375,0.6866455078125,BAD
2021-11-05 23:41:08.808713,-0.98583984375,0.083984375,1.69140625,1.59454345703125,0.8392333984375,0.6866455078125,BAD
2021-11-05 23:41:09.168797,-1.03369140625,0.07568359375,1.671875,2.105712890625,1.99127197265625,0.6256103515625,BAD
2021-11-05 23:41:09.528752,-1.03369140625,0.07568359375,1.671875,2.105712890625,1.99127197265625,0.6256103515625,BAD
2021-11-05 23:41:09.888815,-1.03369140625,0.07568359375,1.671875,2.105712890625,1.99127197265625,0.6256103515625,BAD
2021-11-05 23:41:10.248830,-1.03369140625,0.078125,1.6611328125,1.07574462890625,0.49591064453125,1.71661376953125,BAD
2021-11-05 23:41:10.608821,-1.03369140625,0.078125,1.6611328125,1.07574462890625,0.49591064453125,1.71661376953125,BAD
2021-11-05 23:41:10.968726,-1.03369140625,0.078125,1.6611328125,1.07574462890625,0.49591064453125,1.71661376953125,BAD
2021-11-05 23:41:11.328885,-1.021484375,0.0673828125,1.6630859375,1.46484375,1.33514404296875,0.9613037109375,BAD
2021-11-05 23:41:11.688914,-1.021484375,0.0673828125,1.6630859375,1.46484375,1.33514404296875,0.9613037109375,BAD
2021-11-05 23:41:12.048885,-1.021484375,0.0673828125,1.6630859375,1.9378662109375,0.946044921875,0.6103515625,BAD
2021-11-05 23:41:12.408933,-1.03173828125,0.07373046875,1.67333984375,1.9378662109375,0.946044921875,0.6103515625,BAD
2021-11-05 23:41:12.769027,-1.03173828125,0.07373046875,1.67333984375,1.9378662109375,0.946044921875,0.6103515625,BAD
2021-11-05 23:41:13.129004,-1.04443359375,0.07177734375,1.6806640625,1.89971923828125,1.79290771484375,0.823974609375,BAD
2021-11-05 23:41:13.489064,-1.04443359375,0.07177734375,1.6806640625,1.89971923828125,1.79290771484375,0.823974609375,BAD
2021-11-05 23:41:13.849064,-1.04443359375,0.07177734375,1.6806640625,1.89971923828125,1.79290771484375,0.823974609375,BAD
2021-11-05 23:41:14.209023,-1.03515625,0.07763671875,1.66015625,1.495361328125,1.47247314453125,0.34332275390625,BAD
2021-11-05 23:41:14.569124,-1.03515625,0.07763671875,1.66015625,1.495361328125,1.47247314453125,0.34332275390625,BAD
2021-11-05 23:41:14.929113,-1.03515625,0.07763671875,1.66015625,1.495361328125,1.47247314453125,0.34332275390625,BAD
2021-11-05 23:41:15.289119,-1.04248046875,0.07177734375,1.6669921875,1.3885498046875,1.1749267578125,0.81634521484375,BAD
2021-11-05 23:41:15.694090,-1.04248046875,0.07177734375,1.6669921875,1.3885498046875,1.1749267578125,0.81634521484375,BAD
2021-11-05 23:41:16.054060,-1.04248046875,0.07177734375,1.6669921875,1.5869140625,1.28173828125,0.54168701171875,BAD
2021-11-05 23:41:16.414144,-1.0380859375,0.0634765625,1.671875,1.5869140625,1.28173828125,0.54168701171875,BAD
2021-11-05 23:41:16.774109,-1.0380859375,0.0634765625,1.671875,1.5869140625,1.28173828125,0.54168701171875,BAD
2021-11-05 23:41:17.134181,-1.037109375,0.06591796875,1.66015625,1.46484375,1.2054443359375,0.57220458984375,BAD
2021-11-05 23:41:17.539255,-1.037109375,0.06591796875,1.66015625,1.46484375,1.2054443359375,0.57220458984375,BAD
2021-11-05 23:41:17.899267,-1.037109375,0.06591796875,1.66015625,1.46484375,1.2054443359375,0.57220458984375,BAD
2021-11-05 23:41:18.259249,-1.02978515625,0.07958984375,1.6796875,1.8157958984375,0.51116943359375,0.81634521484375,BAD
2021-11-05 23:41:18.619769,-1.02978515625,0.07958984375,1.6796875,1.8157958984375,0.51116943359375,0.81634521484375,BAD
2021-11-05 23:41:18.979241,-1.02978515625,0.07958984375,1.6796875,1.8157958984375,0.51116943359375,0.81634521484375,BAD
2021-11-05 23:41:19.339293,-0.95166015625,0.08984375,1.72607421875,0.762939453125,0.3509521484375,1.83868408203125,BAD
2021-11-05 23:41:19.699358,-0.95166015625,0.08984375,1.72607421875,0.762939453125,0.3509521484375,1.83868408203125,BAD
2021-11-05 23:41:20.059339,-0.95166015625,0.08984375,1.72607421875,1.94549560546875,1.73187255859375,0.93841552734375,BAD
2021-11-05 23:41:20.464369,-0.91552734375,0.0517578125,1.74560546875,1.94549560546875,1.73187255859375,0.93841552734375,BAD
2021-11-05 23:41:20.824426,-0.91552734375,0.0517578125,1.74560546875,1.94549560546875,1.73187255859375,0.93841552734375,BAD
2021-11-05 23:41:21.184386,-0.93408203125,0.0654296875,1.7412109375,2.1514892578125,1.2969970703125,1.19781494140625,BAD
2021-11-05 23:41:21.544453,-0.93408203125,0.0654296875,1.7412109375,2.1514892578125,1.2969970703125,1.19781494140625,BAD
2021-11-05 23:41:21.904374,-0.93408203125,0.0654296875,1.7412109375,2.1514892578125,1.2969970703125,1.19781494140625,BAD
2021-11-05 23:41:22.264479,-0.93505859375,0.05224609375,1.732421875,1.42669677734375,1.03759765625,0.7171630859375,BAD
2021-11-05 23:41:22.624505,-0.93505859375,0.05224609375,1.732421875,1.42669677734375,1.03759765625,0.7171630859375,BAD
2021-11-05 23:41:23.029566,-0.93505859375,0.05224609375,1.732421875,1.42669677734375,1.03759765625,0.7171630859375,BAD
2021-11-05 23:41:23.434608,-0.93505859375,0.052734375,1.72705078125,1.56402587890625,1.556396484375,0.579833984375,BAD
2021-11-05 23:41:23.794470,-0.93505859375,0.052734375,1.72705078125,1.56402587890625,1.556396484375,0.579833984375,BAD
2021-11-05 23:41:24.154572,-0.94921875,0.06640625,1.72265625,1.54876708984375,1.7547607421875,1.1138916015625,BAD
2021-11-05 23:41:24.514553,-0.94921875,0.06640625,1.72265625,1.54876708984375,1.7547607421875,1.1138916015625,BAD
2021-11-05 23:41:24.874592,-0.94921875,0.06640625,1.72265625,1.54876708984375,1.7547607421875,1.1138916015625,BAD
2021-11-05 23:41:25.234633,-1.08837890625,0.06982421875,1.623046875,3.28826904296875,16.6015625,1.15966796875,GOOD
2021-11-05 23:41:25.594623,-1.08837890625,0.06982421875,1.623046875,3.28826904296875,16.6015625,1.15966796875,GOOD
2021-11-05 23:41:25.954669,-1.08837890625,0.06982421875,1.623046875,3.28826904296875,16.6015625,1.15966796875,GOOD
2021-11-05 23:41:26.315167,-1.6240234375,0.15283203125,1.08740234375,1.861572265625,21.9879150390625,2.22015380859375,GOOD
2021-11-05 23:41:26.674696,-1.6240234375,0.15283203125,1.08740234375,1.861572265625,21.9879150390625,2.22015380859375,GOOD
2021-11-05 23:41:27.034710,-1.6240234375,0.15283203125,1.08740234375,-0.732421875,5.06591796875,3.05938720703125,GOOD
2021-11-05 23:41:27.394658,-1.74853515625,0.2109375,0.83447265625,-0.732421875,5.06591796875,3.05938720703125,GOOD
2021-11-05 23:41:27.754739,-1.74853515625,0.2109375,0.83447265625,-0.732421875,5.06591796875,3.05938720703125,GOOD
2021-11-05 23:41:28.114710,-1.78076171875,0.19287109375,0.712890625,1.53350830078125,-1.617431640625,-0.86212158203125,GOOD
2021-11-05 23:41:28.474762,-1.78076171875,0.19287109375,0.712890625,1.53350830078125,-1.617431640625,-0.86212158203125,GOOD
2021-11-05 23:41:28.834848,-1.78076171875,0.19287109375,0.712890625,1.53350830078125,-1.617431640625,-0.86212158203125,GOOD
2021-11-05 23:41:29.194821,-1.72900390625,0.12060546875,0.9072265625,2.03704833984375,-0.8544921875,2.52532958984375,GOOD
2021-11-05 23:41:29.554821,-1.72900390625,0.12060546875,0.9072265625,2.03704833984375,-0.8544921875,2.52532958984375,GOOD
2021-11-05 23:41:29.915373,-1.72900390625,0.12060546875,0.9072265625,2.03704833984375,-0.8544921875,2.52532958984375,GOOD
2021-11-05 23:41:30.274871,-1.73681640625,0.12548828125,0.8583984375,2.3956298828125,1.74713134765625,0.41961669921875,GOOD
2021-11-05 23:41:30.724917,-1.73681640625,0.12548828125,0.8583984375,2.3956298828125,1.74713134765625,0.41961669921875,GOOD
2021-11-05 23:41:31.085008,-1.705078125,0.09716796875,0.9296875,2.1209716796875,0.0152587890625,-1.24359130859375,GOOD
2021-11-05 23:41:31.444969,-1.705078125,0.09716796875,0.9296875,2.1209716796875,0.0152587890625,-1.24359130859375,GOOD
2021-11-05 23:41:31.849947,-1.705078125,0.09716796875,0.9296875,2.1209716796875,0.0152587890625,-1.24359130859375,GOOD
2021-11-05 23:41:32.209966,-1.6923828125,0.125,0.94970703125,2.84576416015625,5.523681640625,3.18145751953125,GOOD
2021-11-05 23:41:32.570000,-1.6923828125,0.125,0.94970703125,2.84576416015625,5.523681640625,3.18145751953125,GOOD
2021-11-05 23:41:32.929987,-1.6923828125,0.125,0.94970703125,2.84576416015625,5.523681640625,3.18145751953125,GOOD
2021-11-05 23:41:33.289976,-1.7783203125,0.15673828125,0.822265625,0.51116943359375,1.27410888671875,-1.8768310546875,GOOD
2021-11-05 23:41:33.650108,-1.7783203125,0.15673828125,0.822265625,0.51116943359375,1.27410888671875,-1.8768310546875,GOOD
2021-11-05 23:41:34.010049,-1.7783203125,0.15673828125,0.822265625,0.60272216796875,0.6256103515625,-1.7547607421875,GOOD
2021-11-05 23:41:34.370088,-1.75244140625,0.193359375,0.84521484375,0.60272216796875,0.6256103515625,-1.7547607421875,GOOD
2021-11-05 23:41:34.730100,-1.75244140625,0.193359375,0.84521484375,0.60272216796875,0.6256103515625,-1.7547607421875,GOOD
2021-11-05 23:41:35.090141,-1.74658203125,0.14111328125,0.861328125,2.01416015625,1.07574462890625,1.8157958984375,GOOD
2021-11-05 23:41:35.450133,-1.74658203125,0.14111328125,0.861328125,2.01416015625,1.07574462890625,1.8157958984375,GOOD
2021-11-05 23:41:35.855146,-1.74658203125,0.14111328125,0.861328125,2.01416015625,1.07574462890625,1.8157958984375,GOOD
2021-11-05 23:41:36.215168,-1.7265625,0.1455078125,0.86572265625,0.732421875,-0.335693359375,0.23651123046875,GOOD
2021-11-05 23:41:36.575214,-1.7265625,0.1455078125,0.86572265625,0.732421875,-0.335693359375,0.23651123046875,GOOD
2021-11-05 23:41:36.935206,-1.7265625,0.1455078125,0.86572265625,0.732421875,-0.335693359375,0.23651123046875,GOOD
2021-11-05 23:41:37.295247,-1.72265625,0.14501953125,0.8955078125,1.01470947265625,0.55694580078125,0.823974609375,GOOD
2021-11-05 23:41:37.655262,-1.72265625,0.14501953125,0.8955078125,1.01470947265625,0.55694580078125,0.823974609375,GOOD
2021-11-05 23:41:38.060242,-1.72265625,0.14501953125,0.8955078125,1.48773193359375,1.40380859375,0.70953369140625,GOOD
2021-11-05 23:41:38.465253,-1.72705078125,0.13037109375,0.90576171875,1.48773193359375,1.40380859375,0.70953369140625,GOOD
2021-11-05 23:41:38.825269,-1.72705078125,0.13037109375,0.90576171875,1.48773193359375,1.40380859375,0.70953369140625,GOOD
2021-11-05 23:41:39.185290,-1.72705078125,0.14111328125,0.89794921875,1.3580322265625,1.36566162109375,0.5950927734375,GOOD
2021-11-05 23:41:39.545300,-1.72705078125,0.14111328125,0.89794921875,1.3580322265625,1.36566162109375,0.5950927734375,GOOD
2021-11-05 23:41:39.950317,-1.72705078125,0.14111328125,0.89794921875,1.3580322265625,1.36566162109375,0.5950927734375,GOOD
2021-11-05 23:41:40.310417,-1.728515625,0.138671875,0.8984375,1.617431640625,0.6866455078125,1.25885009765625,GOOD
2021-11-05 23:41:40.670396,-1.728515625,0.138671875,0.8984375,1.617431640625,0.6866455078125,1.25885009765625,GOOD
2021-11-05 23:41:41.075404,-1.728515625,0.138671875,0.8984375,0.78582763671875,1.495361328125,2.044677734375,GOOD
2021-11-05 23:41:41.480422,-1.7099609375,0.15185546875,0.9072265625,0.78582763671875,1.495361328125,2.044677734375,GOOD
2021-11-05 23:41:41.840412,-1.7099609375,0.15185546875,0.9072265625,0.78582763671875,1.495361328125,2.044677734375,GOOD
2021-11-05 23:41:42.200457,-1.7060546875,0.1708984375,0.9453125,2.838134765625,-0.091552734375,0.54168701171875,GOOD
2021-11-05 23:41:42.560483,-1.7060546875,0.1708984375,0.9453125,2.838134765625,-0.091552734375,0.54168701171875,GOOD
2021-11-05 23:41:42.920554,-1.7060546875,0.1708984375,0.9453125,2.838134765625,-0.091552734375,0.54168701171875,GOOD
2021-11-05 23:41:43.280511,-1.66552734375,0.14599609375,0.98388671875,1.2664794921875,0.80108642578125,0.701904296875,GOOD
2021-11-05 23:41:43.640581,-1.66552734375,0.14599609375,0.98388671875,1.2664794921875,0.80108642578125,0.701904296875,GOOD
2021-11-05 23:41:44.000533,-1.66552734375,0.14599609375,0.98388671875,2.349853515625,0.2593994140625,0.61798095703125,GOOD
2021-11-05 23:41:44.360531,-1.6787109375,0.14501953125,0.97412109375,2.349853515625,0.2593994140625,0.61798095703125,GOOD
2021-11-05 23:41:44.720617,-1.6787109375,0.14501953125,0.97412109375,2.349853515625,0.2593994140625,0.61798095703125,GOOD
2021-11-05 23:41:45.080636,-1.64306640625,0.09619140625,1.06201171875,1.6937255859375,-17.7001953125,-8.17108154296875,GOOD
2021-11-05 23:41:45.530807,-1.64306640625,0.09619140625,1.06201171875,1.6937255859375,-17.7001953125,-8.17108154296875,GOOD
2021-11-05 23:41:45.890712,-1.64306640625,0.09619140625,1.06201171875,1.6937255859375,-17.7001953125,-8.17108154296875,GOOD
2021-11-05 23:41:46.250792,-1.080078125,0.03955078125,1.671875,-1.861572265625,-17.02880859375,4.96673583984375,GOOD
2021-11-05 23:41:46.610729,-1.080078125,0.03955078125,1.671875,-1.861572265625,-17.02880859375,4.96673583984375,BAD
2021-11-05 23:41:46.970682,-1.080078125,0.03955078125,1.671875,-1.861572265625,-17.02880859375,4.96673583984375,BAD
2021-11-05 23:41:47.330781,-0.9697265625,0.02734375,1.7314453125,2.8533935546875,0.69427490234375,0.5340576171875,BAD
2021-11-05 23:41:47.690718,-0.9697265625,0.02734375,1.7314453125,2.8533935546875,0.69427490234375,0.5340576171875,BAD
2021-11-05 23:41:48.050797,-0.9697265625,0.02734375,1.7314453125,1.65557861328125,2.9144287109375,2.60162353515625,BAD
2021-11-05 23:41:48.410819,-0.98681640625,0.03564453125,1.6982421875,1.65557861328125,2.9144287109375,2.60162353515625,BAD
2021-11-05 23:41:48.770866,-0.98681640625,0.03564453125,1.6982421875,1.65557861328125,2.9144287109375,2.60162353515625,BAD
2021-11-05 23:41:49.130823,-1.0068359375,0.0283203125,1.6826171875,1.31988525390625,2.99835205078125,0.87738037109375,BAD
2021-11-05 23:41:49.490844,-1.0068359375,0.0283203125,1.6826171875,1.31988525390625,2.99835205078125,0.87738037109375,BAD
2021-11-05 23:41:49.850814,-1.0068359375,0.0283203125,1.6826171875,1.31988525390625,2.99835205078125,0.87738037109375,BAD
2021-11-05 23:41:50.210880,-1.03857421875,0.05224609375,1.66748046875,2.74658203125,1.10626220703125,0.98419189453125,BAD
2021-11-05 23:41:50.570920,-1.03857421875,0.05224609375,1.66748046875,2.74658203125,1.10626220703125,0.98419189453125,BAD
2021-11-05 23:41:50.930926,-1.03857421875,0.05224609375,1.66748046875,2.74658203125,1.10626220703125,0.98419189453125,BAD
2021-11-05 23:41:51.290955,-1.03564453125,0.091796875,1.65869140625,0.64849853515625,-1.07574462890625,-0.29754638671875,BAD
2021-11-05 23:41:51.650976,-1.03564453125,0.091796875,1.65869140625,0.64849853515625,-1.07574462890625,-0.29754638671875,BAD
2021-11-05 23:41:52.010948,-1.03564453125,0.091796875,1.65869140625,1.7242431640625,0.54931640625,2.0294189453125,BAD
2021-11-05 23:41:52.370984,-0.98876953125,0.0556640625,1.69580078125,1.7242431640625,0.54931640625,2.0294189453125,BAD
2021-11-05 23:41:52.731006,-0.98876953125,0.0556640625,1.69580078125,1.7242431640625,0.54931640625,2.0294189453125,BAD
2021-11-05 23:41:53.135998,-1.0146484375,0.07763671875,1.6826171875,3.13568115234375,-2.4566650390625,-6.9580078125,BAD
2021-11-05 23:41:53.496036,-1.0146484375,0.07763671875,1.6826171875,3.13568115234375,-2.4566650390625,-6.9580078125,BAD
2021-11-05 23:41:53.856073,-1.0146484375,0.07763671875,1.6826171875,3.13568115234375,-2.4566650390625,-6.9580078125,BAD
2021-11-05 23:41:54.216104,-0.97900390625,0.1083984375,1.69873046875,1.1138916015625,6.38580322265625,-0.75531005859375,BAD
2021-11-05 23:41:54.576121,-0.97900390625,0.1083984375,1.69873046875,1.1138916015625,6.38580322265625,-0.75531005859375,BAD
2021-11-05 23:41:54.936166,-0.97900390625,0.1083984375,1.69873046875,1.1138916015625,6.38580322265625,-0.75531005859375,BAD
2021-11-05 23:41:55.296146,-1.07421875,0.09130859375,1.65673828125,-1.3580322265625,2.00653076171875,4.20379638671875,BAD
2021-11-05 23:41:55.656151,-1.07421875,0.09130859375,1.65673828125,-1.3580322265625,2.00653076171875,4.20379638671875,BAD
2021-11-05 23:41:56.016168,-1.07421875,0.09130859375,1.65673828125,1.9989013671875,1.251220703125,-0.78582763671875,BAD
2021-11-05 23:41:56.376231,-0.9892578125,0.09716796875,1.70458984375,1.9989013671875,1.251220703125,-0.78582763671875,BAD
2021-11-05 23:41:56.736240,-0.9892578125,0.09716796875,1.70458984375,1.9989013671875,1.251220703125,-0.78582763671875,BAD
2021-11-05 23:41:57.096207,-0.96728515625,0.107421875,1.7431640625,1.922607421875,-0.762939453125,-0.32806396484375,BAD
2021-11-05 23:41:57.456298,-0.96728515625,0.107421875,1.7431640625,1.922607421875,-0.762939453125,-0.32806396484375,BAD
2021-11-05 23:41:57.816281,-0.96728515625,0.107421875,1.7431640625,1.922607421875,-0.762939453125,-0.32806396484375,BAD
2021-11-05 23:41:58.176280,-0.97412109375,0.10302734375,1.69921875,1.99127197265625,1.3275146484375,0.57220458984375,BAD
2021-11-05 23:41:58.581307,-0.97412109375,0.10302734375,1.69921875,1.99127197265625,1.3275146484375,0.57220458984375,BAD
2021-11-05 23:41:58.941277,-0.97412109375,0.10302734375,1.69921875,1.99127197265625,1.3275146484375,0.57220458984375,BAD
2021-11-05 23:41:59.301317,-0.96484375,0.08056640625,1.69287109375,1.82342529296875,1.60980224609375,0.86212158203125,BAD
2021-11-05 23:41:59.661293,-0.96484375,0.08056640625,1.69287109375,1.82342529296875,1.60980224609375,0.86212158203125,BAD
2021-11-05 23:42:00.021377,-0.96484375,0.08056640625,1.69287109375,1.617431640625,1.56402587890625,0.6561279296875,BAD
2021-11-05 23:42:00.381417,-0.97314453125,0.08837890625,1.72998046875,1.617431640625,1.56402587890625,0.6561279296875,BAD
2021-11-05 23:42:00.741355,-0.97314453125,0.08837890625,1.72998046875,1.617431640625,1.56402587890625,0.6561279296875,BAD
2021-11-05 23:42:01.101378,-0.986328125,0.08349609375,1.71533203125,2.6092529296875,1.65557861328125,0.6256103515625,BAD
2021-11-05 23:42:01.461389,-0.986328125,0.08349609375,1.71533203125,2.6092529296875,1.65557861328125,0.6256103515625,BAD
2021-11-05 23:42:01.821422,-0.986328125,0.08349609375,1.71533203125,2.6092529296875,1.65557861328125,0.6256103515625,BAD
2021-11-05 23:42:02.181461,-0.99365234375,0.0908203125,1.69677734375,1.40380859375,1.5716552734375,0.49591064453125,BAD
2021-11-05 23:42:02.541486,-0.99365234375,0.0908203125,1.69677734375,1.40380859375,1.5716552734375,0.49591064453125,BAD
2021-11-05 23:42:02.901471,-0.99365234375,0.0908203125,1.69677734375,1.40380859375,1.5716552734375,0.49591064453125,BAD
2021-11-05 23:42:03.261525,-0.97998046875,0.091796875,1.7001953125,1.9989013671875,1.3427734375,0.98419189453125,BAD
2021-11-05 23:42:03.621512,-0.97998046875,0.091796875,1.7001953125,1.9989013671875,1.3427734375,0.98419189453125,BAD
2021-11-05 23:42:03.981534,-0.97998046875,0.091796875,1.7001953125,1.9989013671875,1.3427734375,0.98419189453125,BAD
2021-11-05 23:42:04.341550,-0.98486328125,0.09326171875,1.69580078125,1.8463134765625,1.22833251953125,1.007080078125,BAD
2021-11-05 23:42:04.701588,-0.98486328125,0.09326171875,1.69580078125,1.8463134765625,1.22833251953125,1.007080078125,BAD
2021-11-05 23:42:05.061592,-0.98486328125,0.09326171875,1.69580078125,2.40325927734375,1.129150390625,0.335693359375,BAD
2021-11-05 23:42:05.421616,-0.9619140625,0.10107421875,1.71240234375,2.40325927734375,1.129150390625,0.335693359375,BAD
2021-11-05 23:42:05.781629,-0.9619140625,0.10107421875,1.71240234375,2.40325927734375,1.129150390625,0.335693359375,BAD
2021-11-05 23:42:06.141550,-0.96240234375,0.0986328125,1.71484375,1.7852783203125,1.86920166015625,1.3427734375,BAD
2021-11-05 23:42:06.501647,-0.96240234375,0.0986328125,1.71484375,1.7852783203125,1.86920166015625,1.3427734375,BAD
2021-11-05 23:42:06.861629,-0.96240234375,0.0986328125,1.71484375,1.7852783203125,1.86920166015625,1.3427734375,BAD
2021-11-05 23:42:07.221709,-0.966796875,0.1064453125,1.71484375,1.8768310546875,2.8076171875,0.69427490234375,BAD
2021-11-05 23:42:07.581739,-0.966796875,0.1064453125,1.71484375,1.8768310546875,2.8076171875,0.69427490234375,BAD
2021-11-05 23:42:07.941710,-0.966796875,0.1064453125,1.71484375,1.8768310546875,2.8076171875,0.69427490234375,BAD
2021-11-05 23:42:08.301712,-0.9638671875,0.0986328125,1.71630859375,1.94549560546875,1.2664794921875,0.1068115234375,BAD
2021-11-05 23:42:08.661710,-0.9638671875,0.0986328125,1.71630859375,1.94549560546875,1.2664794921875,0.1068115234375,BAD
2021-11-05 23:42:09.021769,-0.9638671875,0.0986328125,1.71630859375,0.89263916015625,0.89263916015625,1.01470947265625,BAD
2021-11-05 23:42:09.381797,-0.96826171875,0.1103515625,1.69873046875,0.89263916015625,0.89263916015625,1.01470947265625,BAD
2021-11-05 23:42:09.741822,-0.96826171875,0.1103515625,1.69873046875,0.89263916015625,0.89263916015625,1.01470947265625,BAD
2021-11-05 23:42:10.101815,-1.0048828125,0.10205078125,1.68212890625,2.25830078125,5.77545166015625,1.48773193359375,BAD
2021-11-05 23:42:10.461836,-1.0048828125,0.10205078125,1.68212890625,2.25830078125,5.77545166015625,1.48773193359375,BAD
2021-11-05 23:42:10.821867,-1.0048828125,0.10205078125,1.68212890625,2.25830078125,5.77545166015625,1.48773193359375,BAD
2021-11-05 23:42:11.181835,-1.31005859375,0.15869140625,1.44140625,3.2958984375,14.984130859375,2.2735595703125,BAD
2021-11-05 23:42:11.541903,-1.31005859375,0.15869140625,1.44140625,3.2958984375,14.984130859375,2.2735595703125,BAD
2021-11-05 23:42:11.902447,-1.31005859375,0.15869140625,1.44140625,3.2958984375,14.984130859375,2.2735595703125,BAD
2021-11-05 23:42:12.261932,-1.4833984375,0.2041015625,1.2646484375,0.64849853515625,3.8604736328125,-0.63323974609375,BAD
2021-11-05 23:42:12.621934,-1.4833984375,0.2041015625,1.2646484375,0.64849853515625,3.8604736328125,-0.63323974609375,BAD
2021-11-05 23:42:12.981976,-1.4833984375,0.2041015625,1.2646484375,0.64849853515625,3.8604736328125,-0.63323974609375,BAD
2021-11-05 23:42:13.342029,-1.55810546875,0.1484375,1.166015625,1.38092041015625,3.24249267578125,1.18255615234375,BAD
2021-11-05 23:42:13.701971,-1.55810546875,0.1484375,1.166015625,1.38092041015625,3.24249267578125,1.18255615234375,BAD
2021-11-05 23:42:14.106990,-1.6455078125,0.16357421875,1.02978515625,4.02069091796875,4.791259765625,-0.45013427734375,BAD
2021-11-05 23:42:14.467500,-1.6455078125,0.16357421875,1.02978515625,4.02069091796875,4.791259765625,-0.45013427734375,BAD
2021-11-05 23:42:14.827063,-1.6455078125,0.16357421875,1.02978515625,4.02069091796875,4.791259765625,-0.45013427734375,BAD
2021-11-05 23:42:15.277111,-1.6953125,0.15771484375,0.94873046875,1.9683837890625,-0.946044921875,2.197265625,BAD
2021-11-05 23:42:15.637018,-1.6953125,0.15771484375,0.94873046875,1.9683837890625,-0.946044921875,2.197265625,BAD
2021-11-05 23:42:15.997079,-1.6953125,0.15771484375,0.94873046875,1.64031982421875,0.885009765625,0.7171630859375,GOOD
2021-11-05 23:42:16.357091,-1.6923828125,0.16259765625,0.9580078125,1.64031982421875,0.885009765625,0.7171630859375,GOOD
2021-11-05 23:42:16.717116,-1.6923828125,0.16259765625,0.9580078125,1.64031982421875,0.885009765625,0.7171630859375,GOOD
2021-11-05 23:42:17.122164,-1.65966796875,0.1494140625,1.00732421875,1.007080078125,0.55694580078125,0.17547607421875,GOOD
2021-11-05 23:42:17.482242,-1.65966796875,0.1494140625,1.00732421875,1.007080078125,0.55694580078125,0.17547607421875,GOOD
2021-11-05 23:42:17.842229,-1.65966796875,0.1494140625,1.00732421875,1.007080078125,0.55694580078125,0.17547607421875,GOOD
2021-11-05 23:42:18.247268,-1.72216796875,0.185546875,0.89404296875,1.800537109375,7.0037841796875,0.90789794921875,GOOD
2021-11-05 23:42:18.607339,-1.72216796875,0.185546875,0.89404296875,1.800537109375,7.0037841796875,0.90789794921875,GOOD
2021-11-05 23:42:18.967323,-1.72216796875,0.185546875,0.89404296875,1.800537109375,7.0037841796875,0.90789794921875,GOOD
2021-11-05 23:42:19.327258,-1.7548828125,0.1162109375,0.8544921875,0.90789794921875,3.04412841796875,0.26702880859375,GOOD
2021-11-05 23:42:19.687326,-1.7548828125,0.1162109375,0.8544921875,0.90789794921875,3.04412841796875,0.26702880859375,GOOD
2021-11-05 23:42:20.047320,-1.7548828125,0.1162109375,0.8544921875,1.06048583984375,-0.35858154296875,0.6866455078125,GOOD
2021-11-05 23:42:20.407377,-1.75244140625,0.14208984375,0.84521484375,1.06048583984375,-0.35858154296875,0.6866455078125,GOOD
2021-11-05 23:42:20.767380,-1.75244140625,0.14208984375,0.84521484375,1.06048583984375,-0.35858154296875,0.6866455078125,GOOD
2021-11-05 23:42:21.127413,-1.703125,0.14453125,0.92724609375,1.64031982421875,0.92315673828125,1.2969970703125,GOOD
2021-11-05 23:42:21.487440,-1.703125,0.14453125,0.92724609375,1.64031982421875,0.92315673828125,1.2969970703125,GOOD
2021-11-05 23:42:21.847971,-1.703125,0.14453125,0.92724609375,1.64031982421875,0.92315673828125,1.2969970703125,GOOD
2021-11-05 23:42:22.252446,-1.7158203125,0.162109375,0.9130859375,1.85394287109375,0.87738037109375,1.02996826171875,GOOD
2021-11-05 23:42:22.612485,-1.7158203125,0.162109375,0.9130859375,1.85394287109375,0.87738037109375,1.02996826171875,GOOD
2021-11-05 23:42:22.972456,-1.7158203125,0.162109375,0.9130859375,1.85394287109375,0.87738037109375,1.02996826171875,GOOD
2021-11-05 23:42:23.332484,-1.705078125,0.13037109375,0.931640625,1.15966796875,0.89263916015625,0.579833984375,GOOD
2021-11-05 23:42:23.692576,-1.705078125,0.13037109375,0.931640625,1.15966796875,0.89263916015625,0.579833984375,GOOD
2021-11-05 23:42:24.052550,-1.705078125,0.13037109375,0.931640625,1.62506103515625,0.335693359375,0.72479248046875,GOOD
2021-11-05 23:42:24.412677,-1.71484375,0.11767578125,0.92041015625,1.62506103515625,0.335693359375,0.72479248046875,GOOD
2021-11-05 23:42:24.772637,-1.71484375,0.11767578125,0.92041015625,1.62506103515625,0.335693359375,0.72479248046875,GOOD
2021-11-05 23:42:25.132594,-1.71435546875,0.13671875,0.93359375,1.52587890625,1.5716552734375,0.5950927734375,GOOD
2021-11-05 23:42:25.492694,-1.71435546875,0.13671875,0.93359375,1.52587890625,1.5716552734375,0.5950927734375,GOOD
2021-11-05 23:42:25.852623,-1.71435546875,0.13671875,0.93359375,1.52587890625,1.5716552734375,0.5950927734375,GOOD
2021-11-05 23:42:26.212683,-1.7099609375,0.13525390625,0.9384765625,1.922607421875,1.22833251953125,1.15203857421875,GOOD
2021-11-05 23:42:26.617714,-1.7099609375,0.13525390625,0.9384765625,1.922607421875,1.22833251953125,1.15203857421875,GOOD
2021-11-05 23:42:26.977673,-1.7099609375,0.13525390625,0.9384765625,1.922607421875,1.22833251953125,1.15203857421875,GOOD
2021-11-05 23:42:27.337749,-1.6962890625,0.12939453125,0.9453125,1.983642578125,1.3275146484375,0.54168701171875,GOOD
2021-11-05 23:42:27.697741,-1.6962890625,0.12939453125,0.9453125,1.983642578125,1.3275146484375,0.54168701171875,GOOD
2021-11-05 23:42:28.057749,-1.6962890625,0.12939453125,0.9453125,1.30462646484375,0.70953369140625,1.0833740234375,GOOD
2021-11-05 23:42:28.417742,-1.68017578125,0.14111328125,0.95751953125,1.30462646484375,0.70953369140625,1.0833740234375,GOOD
2021-11-05 23:42:28.777749,-1.68017578125,0.14111328125,0.95751953125,1.30462646484375,0.70953369140625,1.0833740234375,GOOD
2021-11-05 23:42:29.137688,-1.701171875,0.09521484375,0.958984375,1.2359619140625,-1.2969970703125,5.25665283203125,GOOD
2021-11-05 23:42:29.497808,-1.701171875,0.09521484375,0.958984375,1.2359619140625,-1.2969970703125,5.25665283203125,GOOD
2021-11-05 23:42:29.857865,-1.701171875,0.09521484375,0.958984375,1.2359619140625,-1.2969970703125,5.25665283203125,GOOD
2021-11-05 23:42:30.217820,-1.6220703125,0.18701171875,1.0517578125,0.6256103515625,-1.67083740234375,0.03814697265625,GOOD
2021-11-05 23:42:30.577830,-1.6220703125,0.18701171875,1.0517578125,0.6256103515625,-1.67083740234375,0.03814697265625,GOOD
2021-11-05 23:42:30.937831,-1.6220703125,0.18701171875,1.0517578125,0.6256103515625,-1.67083740234375,0.03814697265625,GOOD
2021-11-05 23:42:31.297889,-1.55859375,0.13916015625,1.1669921875,-10.55908203125,-9.30023193359375,4.791259765625,GOOD
2021-11-05 23:42:31.657838,-1.55859375,0.13916015625,1.1669921875,-10.55908203125,-9.30023193359375,4.791259765625,GOOD
2021-11-05 23:42:32.017877,-1.55859375,0.13916015625,1.1669921875,-2.8839111328125,-13.31329345703125,-2.87628173828125,GOOD
2021-11-05 23:42:32.467878,-1.20068359375,-0.125,1.55419921875,-2.8839111328125,-13.31329345703125,-2.87628173828125,GOOD
2021-11-05 23:42:32.828365,-1.20068359375,-0.125,1.55419921875,-2.8839111328125,-13.31329345703125,-2.87628173828125,GOOD
2021-11-05 23:42:33.187926,-1.00537109375,-0.17724609375,1.6767578125,1.88446044921875,1.6021728515625,0.274658203125,BAD
2021-11-05 23:42:33.547855,-1.00537109375,-0.17724609375,1.6767578125,1.88446044921875,1.6021728515625,0.274658203125,BAD
2021-11-05 23:42:33.907941,-1.00537109375,-0.17724609375,1.6767578125,1.88446044921875,1.6021728515625,0.274658203125,BAD
2021-11-05 23:42:34.268068,-1.017578125,-0.1611328125,1.68408203125,2.51007080078125,0.90789794921875,0.6256103515625,BAD
2021-11-05 23:42:34.628022,-1.017578125,-0.1611328125,1.68408203125,2.51007080078125,0.90789794921875,0.6256103515625,BAD
2021-11-05 23:42:34.987964,-1.017578125,-0.1611328125,1.68408203125,1.46484375,0.58746337890625,0.69427490234375,BAD
2021-11-05 23:42:35.483006,-0.99267578125,-0.14697265625,1.67333984375,1.46484375,0.58746337890625,0.69427490234375,BAD
2021-11-05 23:42:35.843018,-0.99267578125,-0.14697265625,1.67333984375,1.46484375,0.58746337890625,0.69427490234375,BAD
2021-11-05 23:42:36.248024,-1.03955078125,-0.29296875,1.62158203125,-2.01416015625,5.55419921875,2.92205810546875,BAD
2021-11-05 23:42:36.608026,-1.03955078125,-0.29296875,1.62158203125,-2.01416015625,5.55419921875,2.92205810546875,BAD
2021-11-05 23:42:36.968144,-1.03955078125,-0.29296875,1.62158203125,-2.01416015625,5.55419921875,2.92205810546875,BAD
2021-11-05 23:42:37.328085,-1.033203125,-0.05224609375,1.68212890625,0.93841552734375,2.349853515625,1.373291015625,BAD
2021-11-05 23:42:37.688103,-1.033203125,-0.05224609375,1.68212890625,0.93841552734375,2.349853515625,1.373291015625,BAD
2021-11-05 23:42:38.048079,-1.033203125,-0.05224609375,1.68212890625,1.3427734375,-1.01470947265625,0.16021728515625,BAD
2021-11-05 23:42:38.408153,-1.03955078125,-0.07861328125,1.64453125,1.3427734375,-1.01470947265625,0.16021728515625,BAD
2021-11-05 23:42:38.768158,-1.03955078125,-0.07861328125,1.64453125,1.3427734375,-1.01470947265625,0.16021728515625,BAD
2021-11-05 23:42:39.128124,-1.029296875,-0.1396484375,1.7001953125,3.173828125,1.8768310546875,2.655029296875,BAD
2021-11-05 23:42:39.488160,-1.029296875,-0.1396484375,1.7001953125,3.173828125,1.8768310546875,2.655029296875,BAD
2021-11-05 23:42:39.848148,-1.029296875,-0.1396484375,1.7001953125,3.173828125,1.8768310546875,2.655029296875,BAD
2021-11-05 23:42:40.208181,-1.0107421875,-0.0732421875,1.6728515625,1.51824951171875,0.35858154296875,0.22125244140625,BAD
2021-11-05 23:42:40.568300,-1.0107421875,-0.0732421875,1.6728515625,1.51824951171875,0.35858154296875,0.22125244140625,BAD
2021-11-05 23:42:40.928257,-1.0107421875,-0.0732421875,1.6728515625,1.51824951171875,0.35858154296875,0.22125244140625,BAD
2021-11-05 23:42:41.288331,-1.01220703125,-0.0966796875,1.67041015625,1.25885009765625,0.31280517578125,-0.2899169921875,BAD
2021-11-05 23:42:41.648294,-1.01220703125,-0.0966796875,1.67041015625,1.25885009765625,0.31280517578125,-0.2899169921875,BAD
2021-11-05 23:42:42.008312,-1.01220703125,-0.0966796875,1.67041015625,1.89971923828125,0.66375732421875,0.28228759765625,BAD
2021-11-05 23:42:42.368377,-1.041015625,-0.10595703125,1.66552734375,1.89971923828125,0.66375732421875,0.28228759765625,BAD
2021-11-05 23:42:42.728266,-1.041015625,-0.10595703125,1.66552734375,1.89971923828125,0.66375732421875,0.28228759765625,BAD
2021-11-05 23:42:43.088372,-0.857421875,-0.15234375,1.78173828125,0.80108642578125,3.65447998046875,0.213623046875,BAD
2021-11-05 23:42:43.448282,-0.857421875,-0.15234375,1.78173828125,0.80108642578125,3.65447998046875,0.213623046875,BAD
2021-11-05 23:42:43.808365,-0.857421875,-0.15234375,1.78173828125,0.80108642578125,3.65447998046875,0.213623046875,BAD
2021-11-05 23:42:44.168382,-0.845703125,-0.1513671875,1.77880859375,1.9683837890625,1.3885498046875,1.13677978515625,BAD
2021-11-05 23:42:44.528356,-0.845703125,-0.1513671875,1.77880859375,1.9683837890625,1.3885498046875,1.13677978515625,BAD
2021-11-05 23:42:44.933357,-0.845703125,-0.1513671875,1.77880859375,1.9683837890625,1.3885498046875,1.13677978515625,BAD
2021-11-05 23:42:45.293393,-0.84765625,-0.12548828125,1.77490234375,2.23541259765625,1.9378662109375,0.9307861328125,BAD
2021-11-05 23:42:45.653428,-0.84765625,-0.12548828125,1.77490234375,2.23541259765625,1.9378662109375,0.9307861328125,BAD
2021-11-05 23:42:46.013465,-0.84765625,-0.12548828125,1.77490234375,1.97601318359375,3.94439697265625,2.54058837890625,BAD
2021-11-05 23:42:46.373437,-0.88134765625,-0.1259765625,1.74951171875,1.97601318359375,3.94439697265625,2.54058837890625,BAD
2021-11-05 23:42:46.733487,-0.88134765625,-0.1259765625,1.74951171875,1.97601318359375,3.94439697265625,2.54058837890625,BAD
2021-11-05 23:42:47.093548,-0.8935546875,-0.07421875,1.74609375,3.2806396484375,2.49481201171875,1.1749267578125,BAD
2021-11-05 23:42:47.453516,-0.8935546875,-0.07421875,1.74609375,3.2806396484375,2.49481201171875,1.1749267578125,BAD
2021-11-05 23:42:47.813498,-0.8935546875,-0.07421875,1.74609375,3.2806396484375,2.49481201171875,1.1749267578125,BAD
2021-11-05 23:42:48.173500,-0.82421875,-0.04345703125,1.80126953125,-1.13677978515625,-0.64849853515625,1.6021728515625,BAD
2021-11-05 23:42:48.533534,-0.82421875,-0.04345703125,1.80126953125,-1.13677978515625,-0.64849853515625,1.6021728515625,BAD
2021-11-05 23:42:48.893545,-0.82421875,-0.04345703125,1.80126953125,-1.13677978515625,-0.64849853515625,1.6021728515625,BAD
2021-11-05 23:42:49.253587,-0.80908203125,-0.087890625,1.78955078125,1.38092041015625,2.899169921875,0.3204345703125,BAD
2021-11-05 23:42:49.613615,-0.80908203125,-0.087890625,1.78955078125,1.38092041015625,2.899169921875,0.3204345703125,BAD
2021-11-05 23:42:49.973657,-0.80908203125,-0.087890625,1.78955078125,1.38092041015625,2.899169921875,0.3204345703125,BAD
2021-11-05 23:42:50.333617,-0.7998046875,-0.08740234375,1.79931640625,1.71661376953125,1.7852783203125,0.335693359375,BAD
2021-11-05 23:42:50.693696,-0.7998046875,-0.08740234375,1.79931640625,1.71661376953125,1.7852783203125,0.335693359375,BAD
2021-11-05 23:42:51.053705,-0.7998046875,-0.08740234375,1.79931640625,1.40380859375,0.9765625,0.51116943359375,BAD
2021-11-05 23:42:51.413700,-0.810546875,-0.08837890625,1.783203125,1.40380859375,0.9765625,0.51116943359375,BAD
2021-11-05 23:42:51.773690,-0.810546875,-0.08837890625,1.783203125,1.40380859375,0.9765625,0.51116943359375,BAD
2021-11-05 23:42:52.133709,-0.79248046875,-0.1015625,1.79736328125,1.434326171875,1.21307373046875,0.60272216796875,BAD
2021-11-05 23:42:52.493737,-0.79248046875,-0.1015625,1.79736328125,1.434326171875,1.21307373046875,0.60272216796875,BAD
2021-11-05 23:42:52.853771,-0.79248046875,-0.1015625,1.79736328125,1.434326171875,1.21307373046875,0.60272216796875,BAD
2021-11-05 23:42:53.213800,-0.7958984375,-0.0888671875,1.7880859375,2.38037109375,1.53350830078125,0.67138671875,BAD
2021-11-05 23:42:53.573787,-0.7958984375,-0.0888671875,1.7880859375,2.38037109375,1.53350830078125,0.67138671875,BAD
2021-11-05 23:42:53.933748,-0.7958984375,-0.0888671875,1.7880859375,2.38037109375,1.53350830078125,0.67138671875,BAD
2021-11-05 23:42:54.293780,-0.7998046875,-0.099609375,1.79443359375,1.99127197265625,1.71661376953125,0.61798095703125,BAD
2021-11-05 23:42:54.653765,-0.7998046875,-0.099609375,1.79443359375,1.99127197265625,1.71661376953125,0.61798095703125,BAD
2021-11-05 23:42:55.013799,-0.7998046875,-0.099609375,1.79443359375,0.6256103515625,1.93023681640625,2.11334228515625,BAD
2021-11-05 23:42:55.373828,-0.89013671875,-0.10595703125,1.71142578125,0.6256103515625,1.93023681640625,2.11334228515625,BAD
2021-11-05 23:42:55.733779,-0.89013671875,-0.10595703125,1.71142578125,0.6256103515625,1.93023681640625,2.11334228515625,BAD
2021-11-05 23:42:56.093831,-0.802734375,-0.10595703125,1.8046875,1.4801025390625,1.22833251953125,0.54168701171875,BAD
2021-11-05 23:42:56.453940,-0.802734375,-0.10595703125,1.8046875,1.4801025390625,1.22833251953125,0.54168701171875,BAD
2021-11-05 23:42:56.813922,-0.802734375,-0.10595703125,1.8046875,1.4801025390625,1.22833251953125,0.54168701171875,BAD
2021-11-05 23:42:57.173951,-0.79345703125,-0.10302734375,1.7939453125,1.89971923828125,0.91552734375,-0.02288818359375,BAD
2021-11-05 23:42:57.533893,-0.79345703125,-0.10302734375,1.7939453125,1.89971923828125,0.91552734375,-0.02288818359375,BAD
2021-11-05 23:42:57.893949,-0.79345703125,-0.10302734375,1.7939453125,1.89971923828125,0.91552734375,-0.02288818359375,BAD
2021-11-05 23:42:58.253974,-0.79052734375,-0.10986328125,1.806640625,1.04522705078125,1.2969970703125,1.36566162109375,BAD
2021-11-05 23:42:58.613991,-0.79052734375,-0.10986328125,1.806640625,1.04522705078125,1.2969970703125,1.36566162109375,BAD
2021-11-05 23:42:59.018948,-0.79052734375,-0.10986328125,1.806640625,1.04522705078125,1.2969970703125,1.36566162109375,BAD
2021-11-05 23:42:59.379021,-1.00439453125,-0.06298828125,1.64013671875,11.23809814453125,17.8375244140625,9.78851318359375,BAD
2021-11-05 23:42:59.783967,-1.00439453125,-0.06298828125,1.64013671875,11.23809814453125,17.8375244140625,9.78851318359375,BAD
2021-11-05 23:43:00.143979,-1.57666015625,0.263671875,1.0751953125,6.44683837890625,16.0980224609375,-7.3394775390625,BAD
2021-11-05 23:43:00.504018,-1.57666015625,0.263671875,1.0751953125,6.44683837890625,16.0980224609375,-7.3394775390625,BAD
2021-11-05 23:43:00.864040,-1.57666015625,0.263671875,1.0751953125,6.44683837890625,16.0980224609375,-7.3394775390625,BAD
2021-11-05 23:43:01.224039,-1.59326171875,0.11083984375,1.09619140625,2.6702880859375,4.57763671875,2.9449462890625,BAD
2021-11-05 23:43:01.584125,-1.59326171875,0.11083984375,1.09619140625,2.6702880859375,4.57763671875,2.9449462890625,BAD
2021-11-05 23:43:01.944146,-1.59326171875,0.11083984375,1.09619140625,2.6702880859375,4.57763671875,2.9449462890625,BAD
2021-11-05 23:43:02.304114,-1.7587890625,0.11328125,0.84765625,0.80108642578125,0.4730224609375,0.6561279296875,BAD
2021-11-05 23:43:02.709159,-1.7587890625,0.11328125,0.84765625,0.80108642578125,0.4730224609375,0.6561279296875,BAD
2021-11-05 23:43:03.114194,-1.7587890625,0.11328125,0.84765625,1.28936767578125,-0.22125244140625,2.1209716796875,GOOD
2021-11-05 23:43:03.474165,-1.70849609375,0.123046875,0.96337890625,1.28936767578125,-0.22125244140625,2.1209716796875,GOOD
2021-11-05 23:43:03.834171,-1.70849609375,0.123046875,0.96337890625,1.28936767578125,-0.22125244140625,2.1209716796875,GOOD
2021-11-05 23:43:04.194208,-1.6474609375,0.0791015625,1.0283203125,0.762939453125,1.5869140625,1.97601318359375,GOOD
2021-11-05 23:43:04.554209,-1.6474609375,0.0791015625,1.0283203125,0.762939453125,1.5869140625,1.97601318359375,GOOD
2021-11-05 23:43:04.914242,-1.6474609375,0.0791015625,1.0283203125,0.762939453125,1.5869140625,1.97601318359375,GOOD
2021-11-05 23:43:05.274210,-1.70556640625,0.1171875,0.9375,1.13677978515625,-0.49591064453125,-0.579833984375,GOOD
2021-11-05 23:43:05.634191,-1.70556640625,0.1171875,0.9375,1.13677978515625,-0.49591064453125,-0.579833984375,GOOD
2021-11-05 23:43:05.994226,-1.70556640625,0.1171875,0.9375,1.0833740234375,-0.63323974609375,0.70953369140625,GOOD
2021-11-05 23:43:06.354261,-1.67041015625,0.1162109375,0.99560546875,1.0833740234375,-0.63323974609375,0.70953369140625,GOOD
2021-11-05 23:43:06.714230,-1.67041015625,0.1162109375,0.99560546875,1.0833740234375,-0.63323974609375,0.70953369140625,GOOD
2021-11-05 23:43:07.164333,-1.65673828125,0.138671875,0.98095703125,2.2430419921875,4.06646728515625,0.74005126953125,GOOD
2021-11-05 23:43:07.524261,-1.65673828125,0.138671875,0.98095703125,2.2430419921875,4.06646728515625,0.74005126953125,GOOD
2021-11-05 23:43:07.884330,-1.65673828125,0.138671875,0.98095703125,2.2430419921875,4.06646728515625,0.74005126953125,GOOD
2021-11-05 23:43:08.244362,-1.71630859375,0.134765625,0.91357421875,1.89971923828125,0.46539306640625,0.98419189453125,GOOD
2021-11-05 23:43:08.604341,-1.71630859375,0.134765625,0.91357421875,1.89971923828125,0.46539306640625,0.98419189453125,GOOD
2021-11-05 23:43:08.964358,-1.71630859375,0.134765625,0.91357421875,1.89971923828125,0.46539306640625,0.98419189453125,GOOD
2021-11-05 23:43:09.324365,-1.708984375,0.1171875,0.94873046875,1.50299072265625,1.04522705078125,0.4119873046875,GOOD
2021-11-05 23:43:09.684357,-1.708984375,0.1171875,0.94873046875,1.50299072265625,1.04522705078125,0.4119873046875,GOOD
2021-11-05 23:43:10.044391,-1.708984375,0.1171875,0.94873046875,1.556396484375,0.81634521484375,0.6866455078125,GOOD
2021-11-05 23:43:10.404357,-1.6796875,0.10693359375,0.96533203125,1.556396484375,0.81634521484375,0.6866455078125,GOOD
2021-11-05 23:43:10.764977,-1.6796875,0.10693359375,0.96533203125,1.556396484375,0.81634521484375,0.6866455078125,GOOD
2021-11-05 23:43:11.214418,-1.69140625,0.11767578125,0.96728515625,1.6632080078125,1.3275146484375,0.63323974609375,GOOD
2021-11-05 23:43:11.619443,-1.69140625,0.11767578125,0.96728515625,1.6632080078125,1.3275146484375,0.63323974609375,GOOD
2021-11-05 23:43:11.979455,-1.69140625,0.11767578125,0.96728515625,1.6632080078125,1.3275146484375,0.63323974609375,GOOD
2021-11-05 23:43:12.339513,-1.681640625,0.11181640625,0.96875,1.64031982421875,1.434326171875,0.84686279296875,GOOD
2021-11-05 23:43:12.699503,-1.681640625,0.11181640625,0.96875,1.64031982421875,1.434326171875,0.84686279296875,GOOD
2021-11-05 23:43:13.059526,-1.681640625,0.11181640625,0.96875,6.21795654296875,1.8768310546875,3.36456298828125,GOOD
2021-11-05 23:43:13.419565,-1.70263671875,0.1123046875,0.9580078125,6.21795654296875,1.8768310546875,3.36456298828125,GOOD
2021-11-05 23:43:13.779564,-1.70263671875,0.1123046875,0.9580078125,6.21795654296875,1.8768310546875,3.36456298828125,GOOD
2021-11-05 23:43:14.139539,-1.671875,0.15478515625,1.0205078125,2.29644775390625,1.07574462890625,1.373291015625,GOOD
2021-11-05 23:43:14.499577,-1.671875,0.15478515625,1.0205078125,2.29644775390625,1.07574462890625,1.373291015625,GOOD
